id_in_session_p1,id_in_session_p2,participant_code_p1,participant_code_p2,total_payoff_p1,total_payoff_p2,payoff_round_p1,payoff_round_p2,examiner_decision,student_decision,Cell,p1s1,p1s2,p2s1,p2s2,pf_diff_p1_val,pf_diff_p2_val,pf_diff_p1_abs,pf_diff_p2_abs,pf_diff_p1_s,pf_diff_p2_s,game_id,round_number,framing
1,2,265l99ai,2fsj9qvt,14,14,14,14,Don't Control,Don't Cheat,4,0,1,0,1,0,0,0,0,0,0,265l99ai2fsj9qvt,1,1
3,4,7xjh9hwo,e8jis7nf,11,10,11,10,Control,Don't Cheat,2,1,0,0,1,1,-1,0.076923077,0.1,-0.076923077,0.1,7xjh9hwoe8jis7nf,1,1
5,6,zo9j0hsi,iyu7t1vc,14,14,14,14,Don't Control,Don't Cheat,4,0,1,0,1,0,0,0,0,0,0,zo9j0hsiiyu7t1vc,1,1
7,8,3fmd8mik,qkypffhk,14,14,14,14,Don't Control,Don't Cheat,4,0,1,0,1,0,0,0,0,0,0,3fmd8mikqkypffhk,1,1
9,10,r3oyr52t,3u51j68w,14,14,14,14,Don't Control,Don't Cheat,4,0,1,0,1,0,0,0,0,0,0,r3oyr52t3u51j68w,1,1
11,12,xtfge1ys,i2nn9ow6,12,2,12,2,Control,Cheat,1,1,0,1,0,10,-10,0.769230769,1,-0.769230769,1,xtfge1ysi2nn9ow6,1,1
13,14,uwz2vbjr,b7ctrqau,14,14,14,14,Don't Control,Don't Cheat,4,0,1,0,1,0,0,0,0,0,0,uwz2vbjrb7ctrqau,1,1
15,16,ipmny9rq,i18sqw1f,14,14,14,14,Don't Control,Don't Cheat,4,0,1,0,1,0,0,0,0,0,0,ipmny9rqi18sqw1f,1,1
17,18,ouaa8yuq,qxal8ioj,11,10,11,10,Control,Don't Cheat,2,1,0,0,1,1,-1,0.076923077,0.1,-0.076923077,0.1,ouaa8yuqqxal8ioj,1,1
19,20,oy8wn5im,y9iygxxf,14,14,14,14,Don't Control,Don't Cheat,4,0,1,0,1,0,0,0,0,0,0,oy8wn5imy9iygxxf,1,1
21,22,9smjkz19,6ub1usmw,14,14,14,14,Don't Control,Don't Cheat,4,0,1,0,1,0,0,0,0,0,0,9smjkz196ub1usmw,1,1
23,24,0bmasffv,6zqxv643,11,10,11,10,Control,Don't Cheat,2,1,0,0,1,1,-1,0.076923077,0.1,-0.076923077,0.1,0bmasffv6zqxv643,1,1
25,26,sj2ft9f6,6fsse8c1,11,10,11,10,Control,Don't Cheat,2,1,0,0,1,1,-1,0.076923077,0.1,-0.076923077,0.1,sj2ft9f66fsse8c1,1,1
27,28,rj5j60np,i7rlg7cc,11,10,11,10,Control,Don't Cheat,2,1,0,0,1,1,-1,0.076923077,0.1,-0.076923077,0.1,rj5j60npi7rlg7cc,1,1
1,2,265l99ai,2fsj9qvt,28,28,14,14,Don't Control,Don't Cheat,4,0,1,0,1,0,0,0,0,0,0,265l99ai2fsj9qvt,2,1
3,4,7xjh9hwo,e8jis7nf,22,20,11,10,Control,Don't Cheat,2,1,0,0,1,1,-1,0.076923077,0.1,-0.076923077,0.1,7xjh9hwoe8jis7nf,2,1
5,6,zo9j0hsi,iyu7t1vc,28,28,14,14,Don't Control,Don't Cheat,4,0,1,0,1,0,0,0,0,0,0,zo9j0hsiiyu7t1vc,2,1
7,8,3fmd8mik,qkypffhk,28,28,14,14,Don't Control,Don't Cheat,4,0,1,0,1,0,0,0,0,0,0,3fmd8mikqkypffhk,2,1
9,10,r3oyr52t,3u51j68w,17,30,3,16,Don't Control,Cheat,3,0,1,1,0,-13,13,1,1.3,1,-1.3,r3oyr52t3u51j68w,2,1
11,12,xtfge1ys,i2nn9ow6,24,4,12,2,Control,Cheat,1,1,0,1,0,10,-10,0.769230769,1,-0.769230769,1,xtfge1ysi2nn9ow6,2,1
13,14,uwz2vbjr,b7ctrqau,25,24,11,10,Control,Don't Cheat,2,1,0,0,1,1,-1,0.076923077,0.1,-0.076923077,0.1,uwz2vbjrb7ctrqau,2,1
15,16,ipmny9rq,i18sqw1f,25,24,11,10,Control,Don't Cheat,2,1,0,0,1,1,-1,0.076923077,0.1,-0.076923077,0.1,ipmny9rqi18sqw1f,2,1
17,18,ouaa8yuq,qxal8ioj,23,12,12,2,Control,Cheat,1,1,0,1,0,10,-10,0.769230769,1,-0.769230769,1,ouaa8yuqqxal8ioj,2,1
19,20,oy8wn5im,y9iygxxf,25,24,11,10,Control,Don't Cheat,2,1,0,0,1,1,-1,0.076923077,0.1,-0.076923077,0.1,oy8wn5imy9iygxxf,2,1
21,22,9smjkz19,6ub1usmw,28,28,14,14,Don't Control,Don't Cheat,4,0,1,0,1,0,0,0,0,0,0,9smjkz196ub1usmw,2,1
23,24,0bmasffv,6zqxv643,22,20,11,10,Control,Don't Cheat,2,1,0,0,1,1,-1,0.076923077,0.1,-0.076923077,0.1,0bmasffv6zqxv643,2,1
25,26,sj2ft9f6,6fsse8c1,23,12,12,2,Control,Cheat,1,1,0,1,0,10,-10,0.769230769,1,-0.769230769,1,sj2ft9f66fsse8c1,2,1
27,28,rj5j60np,i7rlg7cc,22,20,11,10,Control,Don't Cheat,2,1,0,0,1,1,-1,0.076923077,0.1,-0.076923077,0.1,rj5j60npi7rlg7cc,2,1
1,2,265l99ai,2fsj9qvt,42,42,14,14,Don't Control,Don't Cheat,4,0,1,0,1,0,0,0,0,0,0,265l99ai2fsj9qvt,3,1
3,4,7xjh9hwo,e8jis7nf,33,30,11,10,Control,Don't Cheat,2,1,0,0,1,1,-1,0.076923077,0.1,-0.076923077,0.1,7xjh9hwoe8jis7nf,3,1
5,6,zo9j0hsi,iyu7t1vc,42,42,14,14,Don't Control,Don't Cheat,4,0,1,0,1,0,0,0,0,0,0,zo9j0hsiiyu7t1vc,3,1
7,8,3fmd8mik,qkypffhk,42,42,14,14,Don't Control,Don't Cheat,4,0,1,0,1,0,0,0,0,0,0,3fmd8mikqkypffhk,3,1
9,10,r3oyr52t,3u51j68w,31,44,14,14,Don't Control,Don't Cheat,4,0,1,0,1,0,0,0,0,0,0,r3oyr52t3u51j68w,3,1
11,12,xtfge1ys,i2nn9ow6,36,6,12,2,Control,Cheat,1,1,0,1,0,10,-10,0.769230769,1,-0.769230769,1,xtfge1ysi2nn9ow6,3,1
13,14,uwz2vbjr,b7ctrqau,36,34,11,10,Control,Don't Cheat,2,1,0,0,1,1,-1,0.076923077,0.1,-0.076923077,0.1,uwz2vbjrb7ctrqau,3,1
15,16,ipmny9rq,i18sqw1f,39,38,14,14,Don't Control,Don't Cheat,4,0,1,0,1,0,0,0,0,0,0,ipmny9rqi18sqw1f,3,1
17,18,ouaa8yuq,qxal8ioj,35,14,12,2,Control,Cheat,1,1,0,1,0,10,-10,0.769230769,1,-0.769230769,1,ouaa8yuqqxal8ioj,3,1
19,20,oy8wn5im,y9iygxxf,36,34,11,10,Control,Don't Cheat,2,1,0,0,1,1,-1,0.076923077,0.1,-0.076923077,0.1,oy8wn5imy9iygxxf,3,1
21,22,9smjkz19,6ub1usmw,42,42,14,14,Don't Control,Don't Cheat,4,0,1,0,1,0,0,0,0,0,0,9smjkz196ub1usmw,3,1
23,24,0bmasffv,6zqxv643,33,30,11,10,Control,Don't Cheat,2,1,0,0,1,1,-1,0.076923077,0.1,-0.076923077,0.1,0bmasffv6zqxv643,3,1
25,26,sj2ft9f6,6fsse8c1,37,26,14,14,Don't Control,Don't Cheat,4,0,1,0,1,0,0,0,0,0,0,sj2ft9f66fsse8c1,3,1
27,28,rj5j60np,i7rlg7cc,36,34,14,14,Don't Control,Don't Cheat,4,0,1,0,1,0,0,0,0,0,0,rj5j60npi7rlg7cc,3,1
1,2,265l99ai,2fsj9qvt,56,56,14,14,Don't Control,Don't Cheat,4,0,1,0,1,0,0,0,0,0,0,265l99ai2fsj9qvt,4,1
3,4,7xjh9hwo,e8jis7nf,44,40,11,10,Control,Don't Cheat,2,1,0,0,1,1,-1,0.076923077,0.1,-0.076923077,0.1,7xjh9hwoe8jis7nf,4,1
5,6,zo9j0hsi,iyu7t1vc,45,58,3,16,Don't Control,Cheat,3,0,1,1,0,-13,13,1,1.3,1,-1.3,zo9j0hsiiyu7t1vc,4,1
7,8,3fmd8mik,qkypffhk,56,56,14,14,Don't Control,Don't Cheat,4,0,1,0,1,0,0,0,0,0,0,3fmd8mikqkypffhk,4,1
9,10,r3oyr52t,3u51j68w,45,58,14,14,Don't Control,Don't Cheat,4,0,1,0,1,0,0,0,0,0,0,r3oyr52t3u51j68w,4,1
11,12,xtfge1ys,i2nn9ow6,48,8,12,2,Control,Cheat,1,1,0,1,0,10,-10,0.769230769,1,-0.769230769,1,xtfge1ysi2nn9ow6,4,1
13,14,uwz2vbjr,b7ctrqau,47,44,11,10,Control,Don't Cheat,2,1,0,0,1,1,-1,0.076923077,0.1,-0.076923077,0.1,uwz2vbjrb7ctrqau,4,1
15,16,ipmny9rq,i18sqw1f,53,52,14,14,Don't Control,Don't Cheat,4,0,1,0,1,0,0,0,0,0,0,ipmny9rqi18sqw1f,4,1
17,18,ouaa8yuq,qxal8ioj,49,28,14,14,Don't Control,Don't Cheat,4,0,1,0,1,0,0,0,0,0,0,ouaa8yuqqxal8ioj,4,1
19,20,oy8wn5im,y9iygxxf,47,44,11,10,Control,Don't Cheat,2,1,0,0,1,1,-1,0.076923077,0.1,-0.076923077,0.1,oy8wn5imy9iygxxf,4,1
21,22,9smjkz19,6ub1usmw,56,56,14,14,Don't Control,Don't Cheat,4,0,1,0,1,0,0,0,0,0,0,9smjkz196ub1usmw,4,1
23,24,0bmasffv,6zqxv643,44,40,11,10,Control,Don't Cheat,2,1,0,0,1,1,-1,0.076923077,0.1,-0.076923077,0.1,0bmasffv6zqxv643,4,1
25,26,sj2ft9f6,6fsse8c1,48,36,11,10,Control,Don't Cheat,2,1,0,0,1,1,-1,0.076923077,0.1,-0.076923077,0.1,sj2ft9f66fsse8c1,4,1
27,28,rj5j60np,i7rlg7cc,50,48,14,14,Don't Control,Don't Cheat,4,0,1,0,1,0,0,0,0,0,0,rj5j60npi7rlg7cc,4,1
1,2,265l99ai,2fsj9qvt,70,70,14,14,Don't Control,Don't Cheat,4,0,1,0,1,0,0,0,0,0,0,265l99ai2fsj9qvt,5,1
3,4,7xjh9hwo,e8jis7nf,58,54,14,14,Don't Control,Don't Cheat,4,0,1,0,1,0,0,0,0,0,0,7xjh9hwoe8jis7nf,5,1
5,6,zo9j0hsi,iyu7t1vc,48,74,3,16,Don't Control,Cheat,3,0,1,1,0,-13,13,1,1.3,1,-1.3,zo9j0hsiiyu7t1vc,5,1
7,8,3fmd8mik,qkypffhk,70,70,14,14,Don't Control,Don't Cheat,4,0,1,0,1,0,0,0,0,0,0,3fmd8mikqkypffhk,5,1
9,10,r3oyr52t,3u51j68w,59,72,14,14,Don't Control,Don't Cheat,4,0,1,0,1,0,0,0,0,0,0,r3oyr52t3u51j68w,5,1
11,12,xtfge1ys,i2nn9ow6,60,10,12,2,Control,Cheat,1,1,0,1,0,10,-10,0.769230769,1,-0.769230769,1,xtfge1ysi2nn9ow6,5,1
13,14,uwz2vbjr,b7ctrqau,58,54,11,10,Control,Don't Cheat,2,1,0,0,1,1,-1,0.076923077,0.1,-0.076923077,0.1,uwz2vbjrb7ctrqau,5,1
15,16,ipmny9rq,i18sqw1f,67,66,14,14,Don't Control,Don't Cheat,4,0,1,0,1,0,0,0,0,0,0,ipmny9rqi18sqw1f,5,1
17,18,ouaa8yuq,qxal8ioj,63,42,14,14,Don't Control,Don't Cheat,4,0,1,0,1,0,0,0,0,0,0,ouaa8yuqqxal8ioj,5,1
19,20,oy8wn5im,y9iygxxf,61,58,14,14,Don't Control,Don't Cheat,4,0,1,0,1,0,0,0,0,0,0,oy8wn5imy9iygxxf,5,1
21,22,9smjkz19,6ub1usmw,70,70,14,14,Don't Control,Don't Cheat,4,0,1,0,1,0,0,0,0,0,0,9smjkz196ub1usmw,5,1
23,24,0bmasffv,6zqxv643,55,50,11,10,Control,Don't Cheat,2,1,0,0,1,1,-1,0.076923077,0.1,-0.076923077,0.1,0bmasffv6zqxv643,5,1
25,26,sj2ft9f6,6fsse8c1,51,52,3,16,Don't Control,Cheat,3,0,1,1,0,-13,13,1,1.3,1,-1.3,sj2ft9f66fsse8c1,5,1
27,28,rj5j60np,i7rlg7cc,64,62,14,14,Don't Control,Don't Cheat,4,0,1,0,1,0,0,0,0,0,0,rj5j60npi7rlg7cc,5,1
1,2,265l99ai,2fsj9qvt,73,86,3,16,Don't Control,Cheat,3,0,1,1,0,-13,13,1,1.3,1,-1.3,265l99ai2fsj9qvt,6,1
3,4,7xjh9hwo,e8jis7nf,61,70,3,16,Don't Control,Cheat,3,0,1,1,0,-13,13,1,1.3,1,-1.3,7xjh9hwoe8jis7nf,6,1
5,6,zo9j0hsi,iyu7t1vc,51,90,3,16,Don't Control,Cheat,3,0,1,1,0,-13,13,1,1.3,1,-1.3,zo9j0hsiiyu7t1vc,6,1
7,8,3fmd8mik,qkypffhk,84,84,14,14,Don't Control,Don't Cheat,4,0,1,0,1,0,0,0,0,0,0,3fmd8mikqkypffhk,6,1
9,10,r3oyr52t,3u51j68w,73,86,14,14,Don't Control,Don't Cheat,4,0,1,0,1,0,0,0,0,0,0,r3oyr52t3u51j68w,6,1
11,12,xtfge1ys,i2nn9ow6,72,12,12,2,Control,Cheat,1,1,0,1,0,10,-10,0.769230769,1,-0.769230769,1,xtfge1ysi2nn9ow6,6,1
13,14,uwz2vbjr,b7ctrqau,69,64,11,10,Control,Don't Cheat,2,1,0,0,1,1,-1,0.076923077,0.1,-0.076923077,0.1,uwz2vbjrb7ctrqau,6,1
15,16,ipmny9rq,i18sqw1f,81,80,14,14,Don't Control,Don't Cheat,4,0,1,0,1,0,0,0,0,0,0,ipmny9rqi18sqw1f,6,1
17,18,ouaa8yuq,qxal8ioj,77,56,14,14,Don't Control,Don't Cheat,4,0,1,0,1,0,0,0,0,0,0,ouaa8yuqqxal8ioj,6,1
19,20,oy8wn5im,y9iygxxf,75,72,14,14,Don't Control,Don't Cheat,4,0,1,0,1,0,0,0,0,0,0,oy8wn5imy9iygxxf,6,1
21,22,9smjkz19,6ub1usmw,73,86,3,16,Don't Control,Cheat,3,0,1,1,0,-13,13,1,1.3,1,-1.3,9smjkz196ub1usmw,6,1
23,24,0bmasffv,6zqxv643,66,60,11,10,Control,Don't Cheat,2,1,0,0,1,1,-1,0.076923077,0.1,-0.076923077,0.1,0bmasffv6zqxv643,6,1
25,26,sj2ft9f6,6fsse8c1,63,54,12,2,Control,Cheat,1,1,0,1,0,10,-10,0.769230769,1,-0.769230769,1,sj2ft9f66fsse8c1,6,1
27,28,rj5j60np,i7rlg7cc,78,76,14,14,Don't Control,Don't Cheat,4,0,1,0,1,0,0,0,0,0,0,rj5j60npi7rlg7cc,6,1
1,2,265l99ai,2fsj9qvt,84,96,11,10,Control,Don't Cheat,2,1,0,0,1,1,-1,0.076923077,0.1,-0.076923077,0.1,265l99ai2fsj9qvt,7,1
3,4,7xjh9hwo,e8jis7nf,72,80,11,10,Control,Don't Cheat,2,1,0,0,1,1,-1,0.076923077,0.1,-0.076923077,0.1,7xjh9hwoe8jis7nf,7,1
5,6,zo9j0hsi,iyu7t1vc,54,106,3,16,Don't Control,Cheat,3,0,1,1,0,-13,13,1,1.3,1,-1.3,zo9j0hsiiyu7t1vc,7,1
7,8,3fmd8mik,qkypffhk,98,98,14,14,Don't Control,Don't Cheat,4,0,1,0,1,0,0,0,0,0,0,3fmd8mikqkypffhk,7,1
9,10,r3oyr52t,3u51j68w,87,100,14,14,Don't Control,Don't Cheat,4,0,1,0,1,0,0,0,0,0,0,r3oyr52t3u51j68w,7,1
11,12,xtfge1ys,i2nn9ow6,84,14,12,2,Control,Cheat,1,1,0,1,0,10,-10,0.769230769,1,-0.769230769,1,xtfge1ysi2nn9ow6,7,1
13,14,uwz2vbjr,b7ctrqau,80,74,11,10,Control,Don't Cheat,2,1,0,0,1,1,-1,0.076923077,0.1,-0.076923077,0.1,uwz2vbjrb7ctrqau,7,1
15,16,ipmny9rq,i18sqw1f,95,94,14,14,Don't Control,Don't Cheat,4,0,1,0,1,0,0,0,0,0,0,ipmny9rqi18sqw1f,7,1
17,18,ouaa8yuq,qxal8ioj,91,70,14,14,Don't Control,Don't Cheat,4,0,1,0,1,0,0,0,0,0,0,ouaa8yuqqxal8ioj,7,1
19,20,oy8wn5im,y9iygxxf,86,82,11,10,Control,Don't Cheat,2,1,0,0,1,1,-1,0.076923077,0.1,-0.076923077,0.1,oy8wn5imy9iygxxf,7,1
21,22,9smjkz19,6ub1usmw,87,100,14,14,Don't Control,Don't Cheat,4,0,1,0,1,0,0,0,0,0,0,9smjkz196ub1usmw,7,1
23,24,0bmasffv,6zqxv643,77,70,11,10,Control,Don't Cheat,2,1,0,0,1,1,-1,0.076923077,0.1,-0.076923077,0.1,0bmasffv6zqxv643,7,1
25,26,sj2ft9f6,6fsse8c1,75,56,12,2,Control,Cheat,1,1,0,1,0,10,-10,0.769230769,1,-0.769230769,1,sj2ft9f66fsse8c1,7,1
27,28,rj5j60np,i7rlg7cc,81,92,3,16,Don't Control,Cheat,3,0,1,1,0,-13,13,1,1.3,1,-1.3,rj5j60npi7rlg7cc,7,1
1,2,265l99ai,2fsj9qvt,98,110,14,14,Don't Control,Don't Cheat,4,0,1,0,1,0,0,0,0,0,0,265l99ai2fsj9qvt,8,1
3,4,7xjh9hwo,e8jis7nf,83,90,11,10,Control,Don't Cheat,2,1,0,0,1,1,-1,0.076923077,0.1,-0.076923077,0.1,7xjh9hwoe8jis7nf,8,1
5,6,zo9j0hsi,iyu7t1vc,57,122,3,16,Don't Control,Cheat,3,0,1,1,0,-13,13,1,1.3,1,-1.3,zo9j0hsiiyu7t1vc,8,1
7,8,3fmd8mik,qkypffhk,112,112,14,14,Don't Control,Don't Cheat,4,0,1,0,1,0,0,0,0,0,0,3fmd8mikqkypffhk,8,1
9,10,r3oyr52t,3u51j68w,101,114,14,14,Don't Control,Don't Cheat,4,0,1,0,1,0,0,0,0,0,0,r3oyr52t3u51j68w,8,1
11,12,xtfge1ys,i2nn9ow6,96,16,12,2,Control,Cheat,1,1,0,1,0,10,-10,0.769230769,1,-0.769230769,1,xtfge1ysi2nn9ow6,8,1
13,14,uwz2vbjr,b7ctrqau,91,84,11,10,Control,Don't Cheat,2,1,0,0,1,1,-1,0.076923077,0.1,-0.076923077,0.1,uwz2vbjrb7ctrqau,8,1
15,16,ipmny9rq,i18sqw1f,109,108,14,14,Don't Control,Don't Cheat,4,0,1,0,1,0,0,0,0,0,0,ipmny9rqi18sqw1f,8,1
17,18,ouaa8yuq,qxal8ioj,102,80,11,10,Control,Don't Cheat,2,1,0,0,1,1,-1,0.076923077,0.1,-0.076923077,0.1,ouaa8yuqqxal8ioj,8,1
19,20,oy8wn5im,y9iygxxf,97,92,11,10,Control,Don't Cheat,2,1,0,0,1,1,-1,0.076923077,0.1,-0.076923077,0.1,oy8wn5imy9iygxxf,8,1
21,22,9smjkz19,6ub1usmw,101,114,14,14,Don't Control,Don't Cheat,4,0,1,0,1,0,0,0,0,0,0,9smjkz196ub1usmw,8,1
23,24,0bmasffv,6zqxv643,88,80,11,10,Control,Don't Cheat,2,1,0,0,1,1,-1,0.076923077,0.1,-0.076923077,0.1,0bmasffv6zqxv643,8,1
25,26,sj2ft9f6,6fsse8c1,86,66,11,10,Control,Don't Cheat,2,1,0,0,1,1,-1,0.076923077,0.1,-0.076923077,0.1,sj2ft9f66fsse8c1,8,1
27,28,rj5j60np,i7rlg7cc,92,102,11,10,Control,Don't Cheat,2,1,0,0,1,1,-1,0.076923077,0.1,-0.076923077,0.1,rj5j60npi7rlg7cc,8,1
1,2,265l99ai,2fsj9qvt,112,124,14,14,Don't Control,Don't Cheat,4,0,1,0,1,0,0,0,0,0,0,265l99ai2fsj9qvt,9,1
3,4,7xjh9hwo,e8jis7nf,94,100,11,10,Control,Don't Cheat,2,1,0,0,1,1,-1,0.076923077,0.1,-0.076923077,0.1,7xjh9hwoe8jis7nf,9,1
5,6,zo9j0hsi,iyu7t1vc,60,138,3,16,Don't Control,Cheat,3,0,1,1,0,-13,13,1,1.3,1,-1.3,zo9j0hsiiyu7t1vc,9,1
7,8,3fmd8mik,qkypffhk,126,126,14,14,Don't Control,Don't Cheat,4,0,1,0,1,0,0,0,0,0,0,3fmd8mikqkypffhk,9,1
9,10,r3oyr52t,3u51j68w,104,130,3,16,Don't Control,Cheat,3,0,1,1,0,-13,13,1,1.3,1,-1.3,r3oyr52t3u51j68w,9,1
11,12,xtfge1ys,i2nn9ow6,108,18,12,2,Control,Cheat,1,1,0,1,0,10,-10,0.769230769,1,-0.769230769,1,xtfge1ysi2nn9ow6,9,1
13,14,uwz2vbjr,b7ctrqau,102,94,11,10,Control,Don't Cheat,2,1,0,0,1,1,-1,0.076923077,0.1,-0.076923077,0.1,uwz2vbjrb7ctrqau,9,1
15,16,ipmny9rq,i18sqw1f,123,122,14,14,Don't Control,Don't Cheat,4,0,1,0,1,0,0,0,0,0,0,ipmny9rqi18sqw1f,9,1
17,18,ouaa8yuq,qxal8ioj,116,94,14,14,Don't Control,Don't Cheat,4,0,1,0,1,0,0,0,0,0,0,ouaa8yuqqxal8ioj,9,1
19,20,oy8wn5im,y9iygxxf,111,106,14,14,Don't Control,Don't Cheat,4,0,1,0,1,0,0,0,0,0,0,oy8wn5imy9iygxxf,9,1
21,22,9smjkz19,6ub1usmw,115,128,14,14,Don't Control,Don't Cheat,4,0,1,0,1,0,0,0,0,0,0,9smjkz196ub1usmw,9,1
23,24,0bmasffv,6zqxv643,99,90,11,10,Control,Don't Cheat,2,1,0,0,1,1,-1,0.076923077,0.1,-0.076923077,0.1,0bmasffv6zqxv643,9,1
25,26,sj2ft9f6,6fsse8c1,98,68,12,2,Control,Cheat,1,1,0,1,0,10,-10,0.769230769,1,-0.769230769,1,sj2ft9f66fsse8c1,9,1
27,28,rj5j60np,i7rlg7cc,103,112,11,10,Control,Don't Cheat,2,1,0,0,1,1,-1,0.076923077,0.1,-0.076923077,0.1,rj5j60npi7rlg7cc,9,1
1,2,265l99ai,2fsj9qvt,126,138,14,14,Don't Control,Don't Cheat,4,0,1,0,1,0,0,0,0,0,0,265l99ai2fsj9qvt,10,1
3,4,7xjh9hwo,e8jis7nf,105,110,11,10,Control,Don't Cheat,2,1,0,0,1,1,-1,0.076923077,0.1,-0.076923077,0.1,7xjh9hwoe8jis7nf,10,1
5,6,zo9j0hsi,iyu7t1vc,63,154,3,16,Don't Control,Cheat,3,0,1,1,0,-13,13,1,1.3,1,-1.3,zo9j0hsiiyu7t1vc,10,1
7,8,3fmd8mik,qkypffhk,140,140,14,14,Don't Control,Don't Cheat,4,0,1,0,1,0,0,0,0,0,0,3fmd8mikqkypffhk,10,1
9,10,r3oyr52t,3u51j68w,118,144,14,14,Don't Control,Don't Cheat,4,0,1,0,1,0,0,0,0,0,0,r3oyr52t3u51j68w,10,1
11,12,xtfge1ys,i2nn9ow6,120,20,12,2,Control,Cheat,1,1,0,1,0,10,-10,0.769230769,1,-0.769230769,1,xtfge1ysi2nn9ow6,10,1
13,14,uwz2vbjr,b7ctrqau,113,104,11,10,Control,Don't Cheat,2,1,0,0,1,1,-1,0.076923077,0.1,-0.076923077,0.1,uwz2vbjrb7ctrqau,10,1
15,16,ipmny9rq,i18sqw1f,137,136,14,14,Don't Control,Don't Cheat,4,0,1,0,1,0,0,0,0,0,0,ipmny9rqi18sqw1f,10,1
17,18,ouaa8yuq,qxal8ioj,130,108,14,14,Don't Control,Don't Cheat,4,0,1,0,1,0,0,0,0,0,0,ouaa8yuqqxal8ioj,10,1
19,20,oy8wn5im,y9iygxxf,125,120,14,14,Don't Control,Don't Cheat,4,0,1,0,1,0,0,0,0,0,0,oy8wn5imy9iygxxf,10,1
21,22,9smjkz19,6ub1usmw,129,142,14,14,Don't Control,Don't Cheat,4,0,1,0,1,0,0,0,0,0,0,9smjkz196ub1usmw,10,1
23,24,0bmasffv,6zqxv643,110,100,11,10,Control,Don't Cheat,2,1,0,0,1,1,-1,0.076923077,0.1,-0.076923077,0.1,0bmasffv6zqxv643,10,1
25,26,sj2ft9f6,6fsse8c1,109,78,11,10,Control,Don't Cheat,2,1,0,0,1,1,-1,0.076923077,0.1,-0.076923077,0.1,sj2ft9f66fsse8c1,10,1
27,28,rj5j60np,i7rlg7cc,114,122,11,10,Control,Don't Cheat,2,1,0,0,1,1,-1,0.076923077,0.1,-0.076923077,0.1,rj5j60npi7rlg7cc,10,1
1,2,265l99ai,2fsj9qvt,140,152,14,14,Don't Control,Don't Cheat,4,0,1,0,1,0,0,0,0,0,0,265l99ai2fsj9qvt,11,1
3,4,7xjh9hwo,e8jis7nf,116,120,11,10,Control,Don't Cheat,2,1,0,0,1,1,-1,0.076923077,0.1,-0.076923077,0.1,7xjh9hwoe8jis7nf,11,1
5,6,zo9j0hsi,iyu7t1vc,75,156,12,2,Control,Cheat,1,1,0,1,0,10,-10,0.769230769,1,-0.769230769,1,zo9j0hsiiyu7t1vc,11,1
7,8,3fmd8mik,qkypffhk,154,154,14,14,Don't Control,Don't Cheat,4,0,1,0,1,0,0,0,0,0,0,3fmd8mikqkypffhk,11,1
9,10,r3oyr52t,3u51j68w,132,158,14,14,Don't Control,Don't Cheat,4,0,1,0,1,0,0,0,0,0,0,r3oyr52t3u51j68w,11,1
11,12,xtfge1ys,i2nn9ow6,132,22,12,2,Control,Cheat,1,1,0,1,0,10,-10,0.769230769,1,-0.769230769,1,xtfge1ysi2nn9ow6,11,1
13,14,uwz2vbjr,b7ctrqau,124,114,11,10,Control,Don't Cheat,2,1,0,0,1,1,-1,0.076923077,0.1,-0.076923077,0.1,uwz2vbjrb7ctrqau,11,1
15,16,ipmny9rq,i18sqw1f,151,150,14,14,Don't Control,Don't Cheat,4,0,1,0,1,0,0,0,0,0,0,ipmny9rqi18sqw1f,11,1
17,18,ouaa8yuq,qxal8ioj,144,122,14,14,Don't Control,Don't Cheat,4,0,1,0,1,0,0,0,0,0,0,ouaa8yuqqxal8ioj,11,1
19,20,oy8wn5im,y9iygxxf,139,134,14,14,Don't Control,Don't Cheat,4,0,1,0,1,0,0,0,0,0,0,oy8wn5imy9iygxxf,11,1
21,22,9smjkz19,6ub1usmw,143,156,14,14,Don't Control,Don't Cheat,4,0,1,0,1,0,0,0,0,0,0,9smjkz196ub1usmw,11,1
23,24,0bmasffv,6zqxv643,121,110,11,10,Control,Don't Cheat,2,1,0,0,1,1,-1,0.076923077,0.1,-0.076923077,0.1,0bmasffv6zqxv643,11,1
25,26,sj2ft9f6,6fsse8c1,121,80,12,2,Control,Cheat,1,1,0,1,0,10,-10,0.769230769,1,-0.769230769,1,sj2ft9f66fsse8c1,11,1
27,28,rj5j60np,i7rlg7cc,125,132,11,10,Control,Don't Cheat,2,1,0,0,1,1,-1,0.076923077,0.1,-0.076923077,0.1,rj5j60npi7rlg7cc,11,1
1,2,265l99ai,2fsj9qvt,154,166,14,14,Don't Control,Don't Cheat,4,0,1,0,1,0,0,0,0,0,0,265l99ai2fsj9qvt,12,1
3,4,7xjh9hwo,e8jis7nf,127,130,11,10,Control,Don't Cheat,2,1,0,0,1,1,-1,0.076923077,0.1,-0.076923077,0.1,7xjh9hwoe8jis7nf,12,1
5,6,zo9j0hsi,iyu7t1vc,86,166,11,10,Control,Don't Cheat,2,1,0,0,1,1,-1,0.076923077,0.1,-0.076923077,0.1,zo9j0hsiiyu7t1vc,12,1
7,8,3fmd8mik,qkypffhk,168,168,14,14,Don't Control,Don't Cheat,4,0,1,0,1,0,0,0,0,0,0,3fmd8mikqkypffhk,12,1
9,10,r3oyr52t,3u51j68w,146,172,14,14,Don't Control,Don't Cheat,4,0,1,0,1,0,0,0,0,0,0,r3oyr52t3u51j68w,12,1
11,12,xtfge1ys,i2nn9ow6,144,24,12,2,Control,Cheat,1,1,0,1,0,10,-10,0.769230769,1,-0.769230769,1,xtfge1ysi2nn9ow6,12,1
13,14,uwz2vbjr,b7ctrqau,135,124,11,10,Control,Don't Cheat,2,1,0,0,1,1,-1,0.076923077,0.1,-0.076923077,0.1,uwz2vbjrb7ctrqau,12,1
15,16,ipmny9rq,i18sqw1f,165,164,14,14,Don't Control,Don't Cheat,4,0,1,0,1,0,0,0,0,0,0,ipmny9rqi18sqw1f,12,1
17,18,ouaa8yuq,qxal8ioj,158,136,14,14,Don't Control,Don't Cheat,4,0,1,0,1,0,0,0,0,0,0,ouaa8yuqqxal8ioj,12,1
19,20,oy8wn5im,y9iygxxf,150,144,11,10,Control,Don't Cheat,2,1,0,0,1,1,-1,0.076923077,0.1,-0.076923077,0.1,oy8wn5imy9iygxxf,12,1
21,22,9smjkz19,6ub1usmw,157,170,14,14,Don't Control,Don't Cheat,4,0,1,0,1,0,0,0,0,0,0,9smjkz196ub1usmw,12,1
23,24,0bmasffv,6zqxv643,132,120,11,10,Control,Don't Cheat,2,1,0,0,1,1,-1,0.076923077,0.1,-0.076923077,0.1,0bmasffv6zqxv643,12,1
25,26,sj2ft9f6,6fsse8c1,124,96,3,16,Don't Control,Cheat,3,0,1,1,0,-13,13,1,1.3,1,-1.3,sj2ft9f66fsse8c1,12,1
27,28,rj5j60np,i7rlg7cc,136,142,11,10,Control,Don't Cheat,2,1,0,0,1,1,-1,0.076923077,0.1,-0.076923077,0.1,rj5j60npi7rlg7cc,12,1
1,2,265l99ai,2fsj9qvt,168,180,14,14,Don't Control,Don't Cheat,4,0,1,0,1,0,0,0,0,0,0,265l99ai2fsj9qvt,13,1
3,4,7xjh9hwo,e8jis7nf,138,140,11,10,Control,Don't Cheat,2,1,0,0,1,1,-1,0.076923077,0.1,-0.076923077,0.1,7xjh9hwoe8jis7nf,13,1
5,6,zo9j0hsi,iyu7t1vc,100,180,14,14,Don't Control,Don't Cheat,4,0,1,0,1,0,0,0,0,0,0,zo9j0hsiiyu7t1vc,13,1
7,8,3fmd8mik,qkypffhk,182,182,14,14,Don't Control,Don't Cheat,4,0,1,0,1,0,0,0,0,0,0,3fmd8mikqkypffhk,13,1
9,10,r3oyr52t,3u51j68w,149,188,3,16,Don't Control,Cheat,3,0,1,1,0,-13,13,1,1.3,1,-1.3,r3oyr52t3u51j68w,13,1
11,12,xtfge1ys,i2nn9ow6,156,26,12,2,Control,Cheat,1,1,0,1,0,10,-10,0.769230769,1,-0.769230769,1,xtfge1ysi2nn9ow6,13,1
13,14,uwz2vbjr,b7ctrqau,146,134,11,10,Control,Don't Cheat,2,1,0,0,1,1,-1,0.076923077,0.1,-0.076923077,0.1,uwz2vbjrb7ctrqau,13,1
15,16,ipmny9rq,i18sqw1f,179,178,14,14,Don't Control,Don't Cheat,4,0,1,0,1,0,0,0,0,0,0,ipmny9rqi18sqw1f,13,1
17,18,ouaa8yuq,qxal8ioj,169,146,11,10,Control,Don't Cheat,2,1,0,0,1,1,-1,0.076923077,0.1,-0.076923077,0.1,ouaa8yuqqxal8ioj,13,1
19,20,oy8wn5im,y9iygxxf,164,158,14,14,Don't Control,Don't Cheat,4,0,1,0,1,0,0,0,0,0,0,oy8wn5imy9iygxxf,13,1
21,22,9smjkz19,6ub1usmw,171,184,14,14,Don't Control,Don't Cheat,4,0,1,0,1,0,0,0,0,0,0,9smjkz196ub1usmw,13,1
23,24,0bmasffv,6zqxv643,143,130,11,10,Control,Don't Cheat,2,1,0,0,1,1,-1,0.076923077,0.1,-0.076923077,0.1,0bmasffv6zqxv643,13,1
25,26,sj2ft9f6,6fsse8c1,136,98,12,2,Control,Cheat,1,1,0,1,0,10,-10,0.769230769,1,-0.769230769,1,sj2ft9f66fsse8c1,13,1
27,28,rj5j60np,i7rlg7cc,147,152,11,10,Control,Don't Cheat,2,1,0,0,1,1,-1,0.076923077,0.1,-0.076923077,0.1,rj5j60npi7rlg7cc,13,1
1,2,265l99ai,2fsj9qvt,182,194,14,14,Don't Control,Don't Cheat,4,0,1,0,1,0,0,0,0,0,0,265l99ai2fsj9qvt,14,1
3,4,7xjh9hwo,e8jis7nf,149,150,11,10,Control,Don't Cheat,2,1,0,0,1,1,-1,0.076923077,0.1,-0.076923077,0.1,7xjh9hwoe8jis7nf,14,1
5,6,zo9j0hsi,iyu7t1vc,114,194,14,14,Don't Control,Don't Cheat,4,0,1,0,1,0,0,0,0,0,0,zo9j0hsiiyu7t1vc,14,1
7,8,3fmd8mik,qkypffhk,196,196,14,14,Don't Control,Don't Cheat,4,0,1,0,1,0,0,0,0,0,0,3fmd8mikqkypffhk,14,1
9,10,r3oyr52t,3u51j68w,163,202,14,14,Don't Control,Don't Cheat,4,0,1,0,1,0,0,0,0,0,0,r3oyr52t3u51j68w,14,1
11,12,xtfge1ys,i2nn9ow6,168,28,12,2,Control,Cheat,1,1,0,1,0,10,-10,0.769230769,1,-0.769230769,1,xtfge1ysi2nn9ow6,14,1
13,14,uwz2vbjr,b7ctrqau,157,144,11,10,Control,Don't Cheat,2,1,0,0,1,1,-1,0.076923077,0.1,-0.076923077,0.1,uwz2vbjrb7ctrqau,14,1
15,16,ipmny9rq,i18sqw1f,193,192,14,14,Don't Control,Don't Cheat,4,0,1,0,1,0,0,0,0,0,0,ipmny9rqi18sqw1f,14,1
17,18,ouaa8yuq,qxal8ioj,183,160,14,14,Don't Control,Don't Cheat,4,0,1,0,1,0,0,0,0,0,0,ouaa8yuqqxal8ioj,14,1
19,20,oy8wn5im,y9iygxxf,178,172,14,14,Don't Control,Don't Cheat,4,0,1,0,1,0,0,0,0,0,0,oy8wn5imy9iygxxf,14,1
21,22,9smjkz19,6ub1usmw,185,198,14,14,Don't Control,Don't Cheat,4,0,1,0,1,0,0,0,0,0,0,9smjkz196ub1usmw,14,1
23,24,0bmasffv,6zqxv643,154,140,11,10,Control,Don't Cheat,2,1,0,0,1,1,-1,0.076923077,0.1,-0.076923077,0.1,0bmasffv6zqxv643,14,1
25,26,sj2ft9f6,6fsse8c1,147,108,11,10,Control,Don't Cheat,2,1,0,0,1,1,-1,0.076923077,0.1,-0.076923077,0.1,sj2ft9f66fsse8c1,14,1
27,28,rj5j60np,i7rlg7cc,158,162,11,10,Control,Don't Cheat,2,1,0,0,1,1,-1,0.076923077,0.1,-0.076923077,0.1,rj5j60npi7rlg7cc,14,1
1,2,265l99ai,2fsj9qvt,196,208,14,14,Don't Control,Don't Cheat,4,0,1,0,1,0,0,0,0,0,0,265l99ai2fsj9qvt,15,1
3,4,7xjh9hwo,e8jis7nf,160,160,11,10,Control,Don't Cheat,2,1,0,0,1,1,-1,0.076923077,0.1,-0.076923077,0.1,7xjh9hwoe8jis7nf,15,1
5,6,zo9j0hsi,iyu7t1vc,117,210,3,16,Don't Control,Cheat,3,0,1,1,0,-13,13,1,1.3,1,-1.3,zo9j0hsiiyu7t1vc,15,1
7,8,3fmd8mik,qkypffhk,210,210,14,14,Don't Control,Don't Cheat,4,0,1,0,1,0,0,0,0,0,0,3fmd8mikqkypffhk,15,1
9,10,r3oyr52t,3u51j68w,166,218,3,16,Don't Control,Cheat,3,0,1,1,0,-13,13,1,1.3,1,-1.3,r3oyr52t3u51j68w,15,1
11,12,xtfge1ys,i2nn9ow6,180,30,12,2,Control,Cheat,1,1,0,1,0,10,-10,0.769230769,1,-0.769230769,1,xtfge1ysi2nn9ow6,15,1
13,14,uwz2vbjr,b7ctrqau,168,154,11,10,Control,Don't Cheat,2,1,0,0,1,1,-1,0.076923077,0.1,-0.076923077,0.1,uwz2vbjrb7ctrqau,15,1
15,16,ipmny9rq,i18sqw1f,207,206,14,14,Don't Control,Don't Cheat,4,0,1,0,1,0,0,0,0,0,0,ipmny9rqi18sqw1f,15,1
17,18,ouaa8yuq,qxal8ioj,197,174,14,14,Don't Control,Don't Cheat,4,0,1,0,1,0,0,0,0,0,0,ouaa8yuqqxal8ioj,15,1
19,20,oy8wn5im,y9iygxxf,192,186,14,14,Don't Control,Don't Cheat,4,0,1,0,1,0,0,0,0,0,0,oy8wn5imy9iygxxf,15,1
21,22,9smjkz19,6ub1usmw,199,212,14,14,Don't Control,Don't Cheat,4,0,1,0,1,0,0,0,0,0,0,9smjkz196ub1usmw,15,1
23,24,0bmasffv,6zqxv643,165,150,11,10,Control,Don't Cheat,2,1,0,0,1,1,-1,0.076923077,0.1,-0.076923077,0.1,0bmasffv6zqxv643,15,1
25,26,sj2ft9f6,6fsse8c1,159,110,12,2,Control,Cheat,1,1,0,1,0,10,-10,0.769230769,1,-0.769230769,1,sj2ft9f66fsse8c1,15,1
27,28,rj5j60np,i7rlg7cc,169,172,11,10,Control,Don't Cheat,2,1,0,0,1,1,-1,0.076923077,0.1,-0.076923077,0.1,rj5j60npi7rlg7cc,15,1
1,2,265l99ai,2fsj9qvt,210,222,14,14,Don't Control,Don't Cheat,4,0,1,0,1,0,0,0,0,0,0,265l99ai2fsj9qvt,16,1
3,4,7xjh9hwo,e8jis7nf,171,170,11,10,Control,Don't Cheat,2,1,0,0,1,1,-1,0.076923077,0.1,-0.076923077,0.1,7xjh9hwoe8jis7nf,16,1
5,6,zo9j0hsi,iyu7t1vc,129,212,12,2,Control,Cheat,1,1,0,1,0,10,-10,0.769230769,1,-0.769230769,1,zo9j0hsiiyu7t1vc,16,1
7,8,3fmd8mik,qkypffhk,224,224,14,14,Don't Control,Don't Cheat,4,0,1,0,1,0,0,0,0,0,0,3fmd8mikqkypffhk,16,1
9,10,r3oyr52t,3u51j68w,180,232,14,14,Don't Control,Don't Cheat,4,0,1,0,1,0,0,0,0,0,0,r3oyr52t3u51j68w,16,1
11,12,xtfge1ys,i2nn9ow6,192,32,12,2,Control,Cheat,1,1,0,1,0,10,-10,0.769230769,1,-0.769230769,1,xtfge1ysi2nn9ow6,16,1
13,14,uwz2vbjr,b7ctrqau,179,164,11,10,Control,Don't Cheat,2,1,0,0,1,1,-1,0.076923077,0.1,-0.076923077,0.1,uwz2vbjrb7ctrqau,16,1
15,16,ipmny9rq,i18sqw1f,221,220,14,14,Don't Control,Don't Cheat,4,0,1,0,1,0,0,0,0,0,0,ipmny9rqi18sqw1f,16,1
17,18,ouaa8yuq,qxal8ioj,211,188,14,14,Don't Control,Don't Cheat,4,0,1,0,1,0,0,0,0,0,0,ouaa8yuqqxal8ioj,16,1
19,20,oy8wn5im,y9iygxxf,206,200,14,14,Don't Control,Don't Cheat,4,0,1,0,1,0,0,0,0,0,0,oy8wn5imy9iygxxf,16,1
21,22,9smjkz19,6ub1usmw,213,226,14,14,Don't Control,Don't Cheat,4,0,1,0,1,0,0,0,0,0,0,9smjkz196ub1usmw,16,1
23,24,0bmasffv,6zqxv643,176,160,11,10,Control,Don't Cheat,2,1,0,0,1,1,-1,0.076923077,0.1,-0.076923077,0.1,0bmasffv6zqxv643,16,1
25,26,sj2ft9f6,6fsse8c1,171,112,12,2,Control,Cheat,1,1,0,1,0,10,-10,0.769230769,1,-0.769230769,1,sj2ft9f66fsse8c1,16,1
27,28,rj5j60np,i7rlg7cc,180,182,11,10,Control,Don't Cheat,2,1,0,0,1,1,-1,0.076923077,0.1,-0.076923077,0.1,rj5j60npi7rlg7cc,16,1
1,2,265l99ai,2fsj9qvt,224,236,14,14,Don't Control,Don't Cheat,4,0,1,0,1,0,0,0,0,0,0,265l99ai2fsj9qvt,17,1
3,4,7xjh9hwo,e8jis7nf,182,180,11,10,Control,Don't Cheat,2,1,0,0,1,1,-1,0.076923077,0.1,-0.076923077,0.1,7xjh9hwoe8jis7nf,17,1
5,6,zo9j0hsi,iyu7t1vc,141,214,12,2,Control,Cheat,1,1,0,1,0,10,-10,0.769230769,1,-0.769230769,1,zo9j0hsiiyu7t1vc,17,1
7,8,3fmd8mik,qkypffhk,238,238,14,14,Don't Control,Don't Cheat,4,0,1,0,1,0,0,0,0,0,0,3fmd8mikqkypffhk,17,1
9,10,r3oyr52t,3u51j68w,194,246,14,14,Don't Control,Don't Cheat,4,0,1,0,1,0,0,0,0,0,0,r3oyr52t3u51j68w,17,1
11,12,xtfge1ys,i2nn9ow6,203,42,11,10,Control,Don't Cheat,2,1,0,0,1,1,-1,0.076923077,0.1,-0.076923077,0.1,xtfge1ysi2nn9ow6,17,1
13,14,uwz2vbjr,b7ctrqau,190,174,11,10,Control,Don't Cheat,2,1,0,0,1,1,-1,0.076923077,0.1,-0.076923077,0.1,uwz2vbjrb7ctrqau,17,1
15,16,ipmny9rq,i18sqw1f,235,234,14,14,Don't Control,Don't Cheat,4,0,1,0,1,0,0,0,0,0,0,ipmny9rqi18sqw1f,17,1
17,18,ouaa8yuq,qxal8ioj,222,198,11,10,Control,Don't Cheat,2,1,0,0,1,1,-1,0.076923077,0.1,-0.076923077,0.1,ouaa8yuqqxal8ioj,17,1
19,20,oy8wn5im,y9iygxxf,220,214,14,14,Don't Control,Don't Cheat,4,0,1,0,1,0,0,0,0,0,0,oy8wn5imy9iygxxf,17,1
21,22,9smjkz19,6ub1usmw,227,240,14,14,Don't Control,Don't Cheat,4,0,1,0,1,0,0,0,0,0,0,9smjkz196ub1usmw,17,1
23,24,0bmasffv,6zqxv643,187,170,11,10,Control,Don't Cheat,2,1,0,0,1,1,-1,0.076923077,0.1,-0.076923077,0.1,0bmasffv6zqxv643,17,1
25,26,sj2ft9f6,6fsse8c1,174,128,3,16,Don't Control,Cheat,3,0,1,1,0,-13,13,1,1.3,1,-1.3,sj2ft9f66fsse8c1,17,1
27,28,rj5j60np,i7rlg7cc,191,192,11,10,Control,Don't Cheat,2,1,0,0,1,1,-1,0.076923077,0.1,-0.076923077,0.1,rj5j60npi7rlg7cc,17,1
1,2,265l99ai,2fsj9qvt,238,250,14,14,Don't Control,Don't Cheat,4,0,1,0,1,0,0,0,0,0,0,265l99ai2fsj9qvt,18,1
3,4,7xjh9hwo,e8jis7nf,193,190,11,10,Control,Don't Cheat,2,1,0,0,1,1,-1,0.076923077,0.1,-0.076923077,0.1,7xjh9hwoe8jis7nf,18,1
5,6,zo9j0hsi,iyu7t1vc,152,224,11,10,Control,Don't Cheat,2,1,0,0,1,1,-1,0.076923077,0.1,-0.076923077,0.1,zo9j0hsiiyu7t1vc,18,1
7,8,3fmd8mik,qkypffhk,252,252,14,14,Don't Control,Don't Cheat,4,0,1,0,1,0,0,0,0,0,0,3fmd8mikqkypffhk,18,1
9,10,r3oyr52t,3u51j68w,197,262,3,16,Don't Control,Cheat,3,0,1,1,0,-13,13,1,1.3,1,-1.3,r3oyr52t3u51j68w,18,1
11,12,xtfge1ys,i2nn9ow6,214,52,11,10,Control,Don't Cheat,2,1,0,0,1,1,-1,0.076923077,0.1,-0.076923077,0.1,xtfge1ysi2nn9ow6,18,1
13,14,uwz2vbjr,b7ctrqau,201,184,11,10,Control,Don't Cheat,2,1,0,0,1,1,-1,0.076923077,0.1,-0.076923077,0.1,uwz2vbjrb7ctrqau,18,1
15,16,ipmny9rq,i18sqw1f,249,248,14,14,Don't Control,Don't Cheat,4,0,1,0,1,0,0,0,0,0,0,ipmny9rqi18sqw1f,18,1
17,18,ouaa8yuq,qxal8ioj,236,212,14,14,Don't Control,Don't Cheat,4,0,1,0,1,0,0,0,0,0,0,ouaa8yuqqxal8ioj,18,1
19,20,oy8wn5im,y9iygxxf,231,224,11,10,Control,Don't Cheat,2,1,0,0,1,1,-1,0.076923077,0.1,-0.076923077,0.1,oy8wn5imy9iygxxf,18,1
21,22,9smjkz19,6ub1usmw,241,254,14,14,Don't Control,Don't Cheat,4,0,1,0,1,0,0,0,0,0,0,9smjkz196ub1usmw,18,1
23,24,0bmasffv,6zqxv643,198,180,11,10,Control,Don't Cheat,2,1,0,0,1,1,-1,0.076923077,0.1,-0.076923077,0.1,0bmasffv6zqxv643,18,1
25,26,sj2ft9f6,6fsse8c1,188,142,14,14,Don't Control,Don't Cheat,4,0,1,0,1,0,0,0,0,0,0,sj2ft9f66fsse8c1,18,1
27,28,rj5j60np,i7rlg7cc,202,202,11,10,Control,Don't Cheat,2,1,0,0,1,1,-1,0.076923077,0.1,-0.076923077,0.1,rj5j60npi7rlg7cc,18,1
1,2,265l99ai,2fsj9qvt,252,264,14,14,Don't Control,Don't Cheat,4,0,1,0,1,0,0,0,0,0,0,265l99ai2fsj9qvt,19,1
3,4,7xjh9hwo,e8jis7nf,204,200,11,10,Control,Don't Cheat,2,1,0,0,1,1,-1,0.076923077,0.1,-0.076923077,0.1,7xjh9hwoe8jis7nf,19,1
5,6,zo9j0hsi,iyu7t1vc,163,234,11,10,Control,Don't Cheat,2,1,0,0,1,1,-1,0.076923077,0.1,-0.076923077,0.1,zo9j0hsiiyu7t1vc,19,1
7,8,3fmd8mik,qkypffhk,266,266,14,14,Don't Control,Don't Cheat,4,0,1,0,1,0,0,0,0,0,0,3fmd8mikqkypffhk,19,1
9,10,r3oyr52t,3u51j68w,211,276,14,14,Don't Control,Don't Cheat,4,0,1,0,1,0,0,0,0,0,0,r3oyr52t3u51j68w,19,1
11,12,xtfge1ys,i2nn9ow6,228,66,14,14,Don't Control,Don't Cheat,4,0,1,0,1,0,0,0,0,0,0,xtfge1ysi2nn9ow6,19,1
13,14,uwz2vbjr,b7ctrqau,212,194,11,10,Control,Don't Cheat,2,1,0,0,1,1,-1,0.076923077,0.1,-0.076923077,0.1,uwz2vbjrb7ctrqau,19,1
15,16,ipmny9rq,i18sqw1f,263,262,14,14,Don't Control,Don't Cheat,4,0,1,0,1,0,0,0,0,0,0,ipmny9rqi18sqw1f,19,1
17,18,ouaa8yuq,qxal8ioj,247,222,11,10,Control,Don't Cheat,2,1,0,0,1,1,-1,0.076923077,0.1,-0.076923077,0.1,ouaa8yuqqxal8ioj,19,1
19,20,oy8wn5im,y9iygxxf,245,238,14,14,Don't Control,Don't Cheat,4,0,1,0,1,0,0,0,0,0,0,oy8wn5imy9iygxxf,19,1
21,22,9smjkz19,6ub1usmw,255,268,14,14,Don't Control,Don't Cheat,4,0,1,0,1,0,0,0,0,0,0,9smjkz196ub1usmw,19,1
23,24,0bmasffv,6zqxv643,209,190,11,10,Control,Don't Cheat,2,1,0,0,1,1,-1,0.076923077,0.1,-0.076923077,0.1,0bmasffv6zqxv643,19,1
25,26,sj2ft9f6,6fsse8c1,199,152,11,10,Control,Don't Cheat,2,1,0,0,1,1,-1,0.076923077,0.1,-0.076923077,0.1,sj2ft9f66fsse8c1,19,1
27,28,rj5j60np,i7rlg7cc,213,212,11,10,Control,Don't Cheat,2,1,0,0,1,1,-1,0.076923077,0.1,-0.076923077,0.1,rj5j60npi7rlg7cc,19,1
1,2,265l99ai,2fsj9qvt,266,278,14,14,Don't Control,Don't Cheat,4,0,1,0,1,0,0,0,0,0,0,265l99ai2fsj9qvt,20,1
3,4,7xjh9hwo,e8jis7nf,215,210,11,10,Control,Don't Cheat,2,1,0,0,1,1,-1,0.076923077,0.1,-0.076923077,0.1,7xjh9hwoe8jis7nf,20,1
5,6,zo9j0hsi,iyu7t1vc,174,244,11,10,Control,Don't Cheat,2,1,0,0,1,1,-1,0.076923077,0.1,-0.076923077,0.1,zo9j0hsiiyu7t1vc,20,1
7,8,3fmd8mik,qkypffhk,280,280,14,14,Don't Control,Don't Cheat,4,0,1,0,1,0,0,0,0,0,0,3fmd8mikqkypffhk,20,1
9,10,r3oyr52t,3u51j68w,225,290,14,14,Don't Control,Don't Cheat,4,0,1,0,1,0,0,0,0,0,0,r3oyr52t3u51j68w,20,1
11,12,xtfge1ys,i2nn9ow6,242,80,14,14,Don't Control,Don't Cheat,4,0,1,0,1,0,0,0,0,0,0,xtfge1ysi2nn9ow6,20,1
13,14,uwz2vbjr,b7ctrqau,223,204,11,10,Control,Don't Cheat,2,1,0,0,1,1,-1,0.076923077,0.1,-0.076923077,0.1,uwz2vbjrb7ctrqau,20,1
15,16,ipmny9rq,i18sqw1f,277,276,14,14,Don't Control,Don't Cheat,4,0,1,0,1,0,0,0,0,0,0,ipmny9rqi18sqw1f,20,1
17,18,ouaa8yuq,qxal8ioj,258,232,11,10,Control,Don't Cheat,2,1,0,0,1,1,-1,0.076923077,0.1,-0.076923077,0.1,ouaa8yuqqxal8ioj,20,1
19,20,oy8wn5im,y9iygxxf,259,252,14,14,Don't Control,Don't Cheat,4,0,1,0,1,0,0,0,0,0,0,oy8wn5imy9iygxxf,20,1
21,22,9smjkz19,6ub1usmw,269,282,14,14,Don't Control,Don't Cheat,4,0,1,0,1,0,0,0,0,0,0,9smjkz196ub1usmw,20,1
23,24,0bmasffv,6zqxv643,220,200,11,10,Control,Don't Cheat,2,1,0,0,1,1,-1,0.076923077,0.1,-0.076923077,0.1,0bmasffv6zqxv643,20,1
25,26,sj2ft9f6,6fsse8c1,211,154,12,2,Control,Cheat,1,1,0,1,0,10,-10,0.769230769,1,-0.769230769,1,sj2ft9f66fsse8c1,20,1
27,28,rj5j60np,i7rlg7cc,227,226,14,14,Don't Control,Don't Cheat,4,0,1,0,1,0,0,0,0,0,0,rj5j60npi7rlg7cc,20,1
1,2,265l99ai,2fsj9qvt,280,292,14,14,Don't Control,Don't Cheat,4,0,1,0,1,0,0,0,0,0,0,265l99ai2fsj9qvt,21,1
3,4,7xjh9hwo,e8jis7nf,226,220,11,10,Control,Don't Cheat,2,1,0,0,1,1,-1,0.076923077,0.1,-0.076923077,0.1,7xjh9hwoe8jis7nf,21,1
5,6,zo9j0hsi,iyu7t1vc,185,254,11,10,Control,Don't Cheat,2,1,0,0,1,1,-1,0.076923077,0.1,-0.076923077,0.1,zo9j0hsiiyu7t1vc,21,1
7,8,3fmd8mik,qkypffhk,294,294,14,14,Don't Control,Don't Cheat,4,0,1,0,1,0,0,0,0,0,0,3fmd8mikqkypffhk,21,1
9,10,r3oyr52t,3u51j68w,239,304,14,14,Don't Control,Don't Cheat,4,0,1,0,1,0,0,0,0,0,0,r3oyr52t3u51j68w,21,1
11,12,xtfge1ys,i2nn9ow6,256,94,14,14,Don't Control,Don't Cheat,4,0,1,0,1,0,0,0,0,0,0,xtfge1ysi2nn9ow6,21,1
13,14,uwz2vbjr,b7ctrqau,234,214,11,10,Control,Don't Cheat,2,1,0,0,1,1,-1,0.076923077,0.1,-0.076923077,0.1,uwz2vbjrb7ctrqau,21,1
15,16,ipmny9rq,i18sqw1f,291,290,14,14,Don't Control,Don't Cheat,4,0,1,0,1,0,0,0,0,0,0,ipmny9rqi18sqw1f,21,1
17,18,ouaa8yuq,qxal8ioj,272,246,14,14,Don't Control,Don't Cheat,4,0,1,0,1,0,0,0,0,0,0,ouaa8yuqqxal8ioj,21,1
19,20,oy8wn5im,y9iygxxf,273,266,14,14,Don't Control,Don't Cheat,4,0,1,0,1,0,0,0,0,0,0,oy8wn5imy9iygxxf,21,1
21,22,9smjkz19,6ub1usmw,283,296,14,14,Don't Control,Don't Cheat,4,0,1,0,1,0,0,0,0,0,0,9smjkz196ub1usmw,21,1
23,24,0bmasffv,6zqxv643,231,210,11,10,Control,Don't Cheat,2,1,0,0,1,1,-1,0.076923077,0.1,-0.076923077,0.1,0bmasffv6zqxv643,21,1
25,26,sj2ft9f6,6fsse8c1,223,156,12,2,Control,Cheat,1,1,0,1,0,10,-10,0.769230769,1,-0.769230769,1,sj2ft9f66fsse8c1,21,1
27,28,rj5j60np,i7rlg7cc,238,236,11,10,Control,Don't Cheat,2,1,0,0,1,1,-1,0.076923077,0.1,-0.076923077,0.1,rj5j60npi7rlg7cc,21,1
1,2,265l99ai,2fsj9qvt,294,306,14,14,Don't Control,Don't Cheat,4,0,1,0,1,0,0,0,0,0,0,265l99ai2fsj9qvt,22,1
3,4,7xjh9hwo,e8jis7nf,237,230,11,10,Control,Don't Cheat,2,1,0,0,1,1,-1,0.076923077,0.1,-0.076923077,0.1,7xjh9hwoe8jis7nf,22,1
5,6,zo9j0hsi,iyu7t1vc,196,264,11,10,Control,Don't Cheat,2,1,0,0,1,1,-1,0.076923077,0.1,-0.076923077,0.1,zo9j0hsiiyu7t1vc,22,1
7,8,3fmd8mik,qkypffhk,308,308,14,14,Don't Control,Don't Cheat,4,0,1,0,1,0,0,0,0,0,0,3fmd8mikqkypffhk,22,1
9,10,r3oyr52t,3u51j68w,242,320,3,16,Don't Control,Cheat,3,0,1,1,0,-13,13,1,1.3,1,-1.3,r3oyr52t3u51j68w,22,1
11,12,xtfge1ys,i2nn9ow6,270,108,14,14,Don't Control,Don't Cheat,4,0,1,0,1,0,0,0,0,0,0,xtfge1ysi2nn9ow6,22,1
13,14,uwz2vbjr,b7ctrqau,245,224,11,10,Control,Don't Cheat,2,1,0,0,1,1,-1,0.076923077,0.1,-0.076923077,0.1,uwz2vbjrb7ctrqau,22,1
15,16,ipmny9rq,i18sqw1f,305,304,14,14,Don't Control,Don't Cheat,4,0,1,0,1,0,0,0,0,0,0,ipmny9rqi18sqw1f,22,1
17,18,ouaa8yuq,qxal8ioj,286,260,14,14,Don't Control,Don't Cheat,4,0,1,0,1,0,0,0,0,0,0,ouaa8yuqqxal8ioj,22,1
19,20,oy8wn5im,y9iygxxf,287,280,14,14,Don't Control,Don't Cheat,4,0,1,0,1,0,0,0,0,0,0,oy8wn5imy9iygxxf,22,1
21,22,9smjkz19,6ub1usmw,297,310,14,14,Don't Control,Don't Cheat,4,0,1,0,1,0,0,0,0,0,0,9smjkz196ub1usmw,22,1
23,24,0bmasffv,6zqxv643,245,224,14,14,Don't Control,Don't Cheat,4,0,1,0,1,0,0,0,0,0,0,0bmasffv6zqxv643,22,1
25,26,sj2ft9f6,6fsse8c1,234,166,11,10,Control,Don't Cheat,2,1,0,0,1,1,-1,0.076923077,0.1,-0.076923077,0.1,sj2ft9f66fsse8c1,22,1
27,28,rj5j60np,i7rlg7cc,249,246,11,10,Control,Don't Cheat,2,1,0,0,1,1,-1,0.076923077,0.1,-0.076923077,0.1,rj5j60npi7rlg7cc,22,1
1,2,265l99ai,2fsj9qvt,308,320,14,14,Don't Control,Don't Cheat,4,0,1,0,1,0,0,0,0,0,0,265l99ai2fsj9qvt,23,1
3,4,7xjh9hwo,e8jis7nf,248,240,11,10,Control,Don't Cheat,2,1,0,0,1,1,-1,0.076923077,0.1,-0.076923077,0.1,7xjh9hwoe8jis7nf,23,1
5,6,zo9j0hsi,iyu7t1vc,207,274,11,10,Control,Don't Cheat,2,1,0,0,1,1,-1,0.076923077,0.1,-0.076923077,0.1,zo9j0hsiiyu7t1vc,23,1
7,8,3fmd8mik,qkypffhk,322,322,14,14,Don't Control,Don't Cheat,4,0,1,0,1,0,0,0,0,0,0,3fmd8mikqkypffhk,23,1
9,10,r3oyr52t,3u51j68w,256,334,14,14,Don't Control,Don't Cheat,4,0,1,0,1,0,0,0,0,0,0,r3oyr52t3u51j68w,23,1
11,12,xtfge1ys,i2nn9ow6,273,124,3,16,Don't Control,Cheat,3,0,1,1,0,-13,13,1,1.3,1,-1.3,xtfge1ysi2nn9ow6,23,1
13,14,uwz2vbjr,b7ctrqau,256,234,11,10,Control,Don't Cheat,2,1,0,0,1,1,-1,0.076923077,0.1,-0.076923077,0.1,uwz2vbjrb7ctrqau,23,1
15,16,ipmny9rq,i18sqw1f,319,318,14,14,Don't Control,Don't Cheat,4,0,1,0,1,0,0,0,0,0,0,ipmny9rqi18sqw1f,23,1
17,18,ouaa8yuq,qxal8ioj,300,274,14,14,Don't Control,Don't Cheat,4,0,1,0,1,0,0,0,0,0,0,ouaa8yuqqxal8ioj,23,1
19,20,oy8wn5im,y9iygxxf,301,294,14,14,Don't Control,Don't Cheat,4,0,1,0,1,0,0,0,0,0,0,oy8wn5imy9iygxxf,23,1
21,22,9smjkz19,6ub1usmw,311,324,14,14,Don't Control,Don't Cheat,4,0,1,0,1,0,0,0,0,0,0,9smjkz196ub1usmw,23,1
23,24,0bmasffv,6zqxv643,256,234,11,10,Control,Don't Cheat,2,1,0,0,1,1,-1,0.076923077,0.1,-0.076923077,0.1,0bmasffv6zqxv643,23,1
25,26,sj2ft9f6,6fsse8c1,248,180,14,14,Don't Control,Don't Cheat,4,0,1,0,1,0,0,0,0,0,0,sj2ft9f66fsse8c1,23,1
27,28,rj5j60np,i7rlg7cc,260,256,11,10,Control,Don't Cheat,2,1,0,0,1,1,-1,0.076923077,0.1,-0.076923077,0.1,rj5j60npi7rlg7cc,23,1
1,2,265l99ai,2fsj9qvt,322,334,14,14,Don't Control,Don't Cheat,4,0,1,0,1,0,0,0,0,0,0,265l99ai2fsj9qvt,24,1
3,4,7xjh9hwo,e8jis7nf,259,250,11,10,Control,Don't Cheat,2,1,0,0,1,1,-1,0.076923077,0.1,-0.076923077,0.1,7xjh9hwoe8jis7nf,24,1
5,6,zo9j0hsi,iyu7t1vc,221,288,14,14,Don't Control,Don't Cheat,4,0,1,0,1,0,0,0,0,0,0,zo9j0hsiiyu7t1vc,24,1
7,8,3fmd8mik,qkypffhk,336,336,14,14,Don't Control,Don't Cheat,4,0,1,0,1,0,0,0,0,0,0,3fmd8mikqkypffhk,24,1
9,10,r3oyr52t,3u51j68w,270,348,14,14,Don't Control,Don't Cheat,4,0,1,0,1,0,0,0,0,0,0,r3oyr52t3u51j68w,24,1
11,12,xtfge1ys,i2nn9ow6,285,126,12,2,Control,Cheat,1,1,0,1,0,10,-10,0.769230769,1,-0.769230769,1,xtfge1ysi2nn9ow6,24,1
13,14,uwz2vbjr,b7ctrqau,267,244,11,10,Control,Don't Cheat,2,1,0,0,1,1,-1,0.076923077,0.1,-0.076923077,0.1,uwz2vbjrb7ctrqau,24,1
15,16,ipmny9rq,i18sqw1f,333,332,14,14,Don't Control,Don't Cheat,4,0,1,0,1,0,0,0,0,0,0,ipmny9rqi18sqw1f,24,1
17,18,ouaa8yuq,qxal8ioj,314,288,14,14,Don't Control,Don't Cheat,4,0,1,0,1,0,0,0,0,0,0,ouaa8yuqqxal8ioj,24,1
19,20,oy8wn5im,y9iygxxf,315,308,14,14,Don't Control,Don't Cheat,4,0,1,0,1,0,0,0,0,0,0,oy8wn5imy9iygxxf,24,1
21,22,9smjkz19,6ub1usmw,325,338,14,14,Don't Control,Don't Cheat,4,0,1,0,1,0,0,0,0,0,0,9smjkz196ub1usmw,24,1
23,24,0bmasffv,6zqxv643,270,248,14,14,Don't Control,Don't Cheat,4,0,1,0,1,0,0,0,0,0,0,0bmasffv6zqxv643,24,1
25,26,sj2ft9f6,6fsse8c1,260,182,12,2,Control,Cheat,1,1,0,1,0,10,-10,0.769230769,1,-0.769230769,1,sj2ft9f66fsse8c1,24,1
27,28,rj5j60np,i7rlg7cc,271,266,11,10,Control,Don't Cheat,2,1,0,0,1,1,-1,0.076923077,0.1,-0.076923077,0.1,rj5j60npi7rlg7cc,24,1
1,2,265l99ai,2fsj9qvt,336,348,14,14,Don't Control,Don't Cheat,4,0,1,0,1,0,0,0,0,0,0,265l99ai2fsj9qvt,25,1
3,4,7xjh9hwo,e8jis7nf,270,260,11,10,Control,Don't Cheat,2,1,0,0,1,1,-1,0.076923077,0.1,-0.076923077,0.1,7xjh9hwoe8jis7nf,25,1
5,6,zo9j0hsi,iyu7t1vc,232,298,11,10,Control,Don't Cheat,2,1,0,0,1,1,-1,0.076923077,0.1,-0.076923077,0.1,zo9j0hsiiyu7t1vc,25,1
7,8,3fmd8mik,qkypffhk,350,350,14,14,Don't Control,Don't Cheat,4,0,1,0,1,0,0,0,0,0,0,3fmd8mikqkypffhk,25,1
9,10,r3oyr52t,3u51j68w,273,364,3,16,Don't Control,Cheat,3,0,1,1,0,-13,13,1,1.3,1,-1.3,r3oyr52t3u51j68w,25,1
11,12,xtfge1ys,i2nn9ow6,296,136,11,10,Control,Don't Cheat,2,1,0,0,1,1,-1,0.076923077,0.1,-0.076923077,0.1,xtfge1ysi2nn9ow6,25,1
13,14,uwz2vbjr,b7ctrqau,278,254,11,10,Control,Don't Cheat,2,1,0,0,1,1,-1,0.076923077,0.1,-0.076923077,0.1,uwz2vbjrb7ctrqau,25,1
15,16,ipmny9rq,i18sqw1f,347,346,14,14,Don't Control,Don't Cheat,4,0,1,0,1,0,0,0,0,0,0,ipmny9rqi18sqw1f,25,1
17,18,ouaa8yuq,qxal8ioj,325,298,11,10,Control,Don't Cheat,2,1,0,0,1,1,-1,0.076923077,0.1,-0.076923077,0.1,ouaa8yuqqxal8ioj,25,1
19,20,oy8wn5im,y9iygxxf,326,318,11,10,Control,Don't Cheat,2,1,0,0,1,1,-1,0.076923077,0.1,-0.076923077,0.1,oy8wn5imy9iygxxf,25,1
21,22,9smjkz19,6ub1usmw,339,352,14,14,Don't Control,Don't Cheat,4,0,1,0,1,0,0,0,0,0,0,9smjkz196ub1usmw,25,1
23,24,0bmasffv,6zqxv643,284,262,14,14,Don't Control,Don't Cheat,4,0,1,0,1,0,0,0,0,0,0,0bmasffv6zqxv643,25,1
25,26,sj2ft9f6,6fsse8c1,271,192,11,10,Control,Don't Cheat,2,1,0,0,1,1,-1,0.076923077,0.1,-0.076923077,0.1,sj2ft9f66fsse8c1,25,1
27,28,rj5j60np,i7rlg7cc,285,280,14,14,Don't Control,Don't Cheat,4,0,1,0,1,0,0,0,0,0,0,rj5j60npi7rlg7cc,25,1
1,2,265l99ai,2fsj9qvt,350,362,14,14,Don't Control,Don't Cheat,4,0,1,0,1,0,0,0,0,0,0,265l99ai2fsj9qvt,26,1
3,4,7xjh9hwo,e8jis7nf,281,270,11,10,Control,Don't Cheat,2,1,0,0,1,1,-1,0.076923077,0.1,-0.076923077,0.1,7xjh9hwoe8jis7nf,26,1
5,6,zo9j0hsi,iyu7t1vc,246,312,14,14,Don't Control,Don't Cheat,4,0,1,0,1,0,0,0,0,0,0,zo9j0hsiiyu7t1vc,26,1
7,8,3fmd8mik,qkypffhk,364,364,14,14,Don't Control,Don't Cheat,4,0,1,0,1,0,0,0,0,0,0,3fmd8mikqkypffhk,26,1
9,10,r3oyr52t,3u51j68w,287,378,14,14,Don't Control,Don't Cheat,4,0,1,0,1,0,0,0,0,0,0,r3oyr52t3u51j68w,26,1
11,12,xtfge1ys,i2nn9ow6,308,138,12,2,Control,Cheat,1,1,0,1,0,10,-10,0.769230769,1,-0.769230769,1,xtfge1ysi2nn9ow6,26,1
13,14,uwz2vbjr,b7ctrqau,289,264,11,10,Control,Don't Cheat,2,1,0,0,1,1,-1,0.076923077,0.1,-0.076923077,0.1,uwz2vbjrb7ctrqau,26,1
15,16,ipmny9rq,i18sqw1f,361,360,14,14,Don't Control,Don't Cheat,4,0,1,0,1,0,0,0,0,0,0,ipmny9rqi18sqw1f,26,1
17,18,ouaa8yuq,qxal8ioj,328,314,3,16,Don't Control,Cheat,3,0,1,1,0,-13,13,1,1.3,1,-1.3,ouaa8yuqqxal8ioj,26,1
19,20,oy8wn5im,y9iygxxf,340,332,14,14,Don't Control,Don't Cheat,4,0,1,0,1,0,0,0,0,0,0,oy8wn5imy9iygxxf,26,1
21,22,9smjkz19,6ub1usmw,353,366,14,14,Don't Control,Don't Cheat,4,0,1,0,1,0,0,0,0,0,0,9smjkz196ub1usmw,26,1
23,24,0bmasffv,6zqxv643,295,272,11,10,Control,Don't Cheat,2,1,0,0,1,1,-1,0.076923077,0.1,-0.076923077,0.1,0bmasffv6zqxv643,26,1
25,26,sj2ft9f6,6fsse8c1,282,202,11,10,Control,Don't Cheat,2,1,0,0,1,1,-1,0.076923077,0.1,-0.076923077,0.1,sj2ft9f66fsse8c1,26,1
27,28,rj5j60np,i7rlg7cc,296,290,11,10,Control,Don't Cheat,2,1,0,0,1,1,-1,0.076923077,0.1,-0.076923077,0.1,rj5j60npi7rlg7cc,26,1
1,2,265l99ai,2fsj9qvt,364,376,14,14,Don't Control,Don't Cheat,4,0,1,0,1,0,0,0,0,0,0,265l99ai2fsj9qvt,27,1
3,4,7xjh9hwo,e8jis7nf,292,280,11,10,Control,Don't Cheat,2,1,0,0,1,1,-1,0.076923077,0.1,-0.076923077,0.1,7xjh9hwoe8jis7nf,27,1
5,6,zo9j0hsi,iyu7t1vc,249,328,3,16,Don't Control,Cheat,3,0,1,1,0,-13,13,1,1.3,1,-1.3,zo9j0hsiiyu7t1vc,27,1
7,8,3fmd8mik,qkypffhk,378,378,14,14,Don't Control,Don't Cheat,4,0,1,0,1,0,0,0,0,0,0,3fmd8mikqkypffhk,27,1
9,10,r3oyr52t,3u51j68w,290,394,3,16,Don't Control,Cheat,3,0,1,1,0,-13,13,1,1.3,1,-1.3,r3oyr52t3u51j68w,27,1
11,12,xtfge1ys,i2nn9ow6,319,148,11,10,Control,Don't Cheat,2,1,0,0,1,1,-1,0.076923077,0.1,-0.076923077,0.1,xtfge1ysi2nn9ow6,27,1
13,14,uwz2vbjr,b7ctrqau,300,274,11,10,Control,Don't Cheat,2,1,0,0,1,1,-1,0.076923077,0.1,-0.076923077,0.1,uwz2vbjrb7ctrqau,27,1
15,16,ipmny9rq,i18sqw1f,375,374,14,14,Don't Control,Don't Cheat,4,0,1,0,1,0,0,0,0,0,0,ipmny9rqi18sqw1f,27,1
17,18,ouaa8yuq,qxal8ioj,342,328,14,14,Don't Control,Don't Cheat,4,0,1,0,1,0,0,0,0,0,0,ouaa8yuqqxal8ioj,27,1
19,20,oy8wn5im,y9iygxxf,343,348,3,16,Don't Control,Cheat,3,0,1,1,0,-13,13,1,1.3,1,-1.3,oy8wn5imy9iygxxf,27,1
21,22,9smjkz19,6ub1usmw,367,380,14,14,Don't Control,Don't Cheat,4,0,1,0,1,0,0,0,0,0,0,9smjkz196ub1usmw,27,1
23,24,0bmasffv,6zqxv643,309,286,14,14,Don't Control,Don't Cheat,4,0,1,0,1,0,0,0,0,0,0,0bmasffv6zqxv643,27,1
25,26,sj2ft9f6,6fsse8c1,294,204,12,2,Control,Cheat,1,1,0,1,0,10,-10,0.769230769,1,-0.769230769,1,sj2ft9f66fsse8c1,27,1
27,28,rj5j60np,i7rlg7cc,307,300,11,10,Control,Don't Cheat,2,1,0,0,1,1,-1,0.076923077,0.1,-0.076923077,0.1,rj5j60npi7rlg7cc,27,1
1,2,265l99ai,2fsj9qvt,378,390,14,14,Don't Control,Don't Cheat,4,0,1,0,1,0,0,0,0,0,0,265l99ai2fsj9qvt,28,1
3,4,7xjh9hwo,e8jis7nf,303,290,11,10,Control,Don't Cheat,2,1,0,0,1,1,-1,0.076923077,0.1,-0.076923077,0.1,7xjh9hwoe8jis7nf,28,1
5,6,zo9j0hsi,iyu7t1vc,261,330,12,2,Control,Cheat,1,1,0,1,0,10,-10,0.769230769,1,-0.769230769,1,zo9j0hsiiyu7t1vc,28,1
7,8,3fmd8mik,qkypffhk,392,392,14,14,Don't Control,Don't Cheat,4,0,1,0,1,0,0,0,0,0,0,3fmd8mikqkypffhk,28,1
9,10,r3oyr52t,3u51j68w,304,408,14,14,Don't Control,Don't Cheat,4,0,1,0,1,0,0,0,0,0,0,r3oyr52t3u51j68w,28,1
11,12,xtfge1ys,i2nn9ow6,330,158,11,10,Control,Don't Cheat,2,1,0,0,1,1,-1,0.076923077,0.1,-0.076923077,0.1,xtfge1ysi2nn9ow6,28,1
13,14,uwz2vbjr,b7ctrqau,311,284,11,10,Control,Don't Cheat,2,1,0,0,1,1,-1,0.076923077,0.1,-0.076923077,0.1,uwz2vbjrb7ctrqau,28,1
15,16,ipmny9rq,i18sqw1f,389,388,14,14,Don't Control,Don't Cheat,4,0,1,0,1,0,0,0,0,0,0,ipmny9rqi18sqw1f,28,1
17,18,ouaa8yuq,qxal8ioj,356,342,14,14,Don't Control,Don't Cheat,4,0,1,0,1,0,0,0,0,0,0,ouaa8yuqqxal8ioj,28,1
19,20,oy8wn5im,y9iygxxf,354,358,11,10,Control,Don't Cheat,2,1,0,0,1,1,-1,0.076923077,0.1,-0.076923077,0.1,oy8wn5imy9iygxxf,28,1
21,22,9smjkz19,6ub1usmw,381,394,14,14,Don't Control,Don't Cheat,4,0,1,0,1,0,0,0,0,0,0,9smjkz196ub1usmw,28,1
23,24,0bmasffv,6zqxv643,323,300,14,14,Don't Control,Don't Cheat,4,0,1,0,1,0,0,0,0,0,0,0bmasffv6zqxv643,28,1
25,26,sj2ft9f6,6fsse8c1,297,220,3,16,Don't Control,Cheat,3,0,1,1,0,-13,13,1,1.3,1,-1.3,sj2ft9f66fsse8c1,28,1
27,28,rj5j60np,i7rlg7cc,318,310,11,10,Control,Don't Cheat,2,1,0,0,1,1,-1,0.076923077,0.1,-0.076923077,0.1,rj5j60npi7rlg7cc,28,1
1,2,265l99ai,2fsj9qvt,392,404,14,14,Don't Control,Don't Cheat,4,0,1,0,1,0,0,0,0,0,0,265l99ai2fsj9qvt,29,1
3,4,7xjh9hwo,e8jis7nf,314,300,11,10,Control,Don't Cheat,2,1,0,0,1,1,-1,0.076923077,0.1,-0.076923077,0.1,7xjh9hwoe8jis7nf,29,1
5,6,zo9j0hsi,iyu7t1vc,272,340,11,10,Control,Don't Cheat,2,1,0,0,1,1,-1,0.076923077,0.1,-0.076923077,0.1,zo9j0hsiiyu7t1vc,29,1
7,8,3fmd8mik,qkypffhk,406,406,14,14,Don't Control,Don't Cheat,4,0,1,0,1,0,0,0,0,0,0,3fmd8mikqkypffhk,29,1
9,10,r3oyr52t,3u51j68w,318,422,14,14,Don't Control,Don't Cheat,4,0,1,0,1,0,0,0,0,0,0,r3oyr52t3u51j68w,29,1
11,12,xtfge1ys,i2nn9ow6,341,168,11,10,Control,Don't Cheat,2,1,0,0,1,1,-1,0.076923077,0.1,-0.076923077,0.1,xtfge1ysi2nn9ow6,29,1
13,14,uwz2vbjr,b7ctrqau,322,294,11,10,Control,Don't Cheat,2,1,0,0,1,1,-1,0.076923077,0.1,-0.076923077,0.1,uwz2vbjrb7ctrqau,29,1
15,16,ipmny9rq,i18sqw1f,403,402,14,14,Don't Control,Don't Cheat,4,0,1,0,1,0,0,0,0,0,0,ipmny9rqi18sqw1f,29,1
17,18,ouaa8yuq,qxal8ioj,367,352,11,10,Control,Don't Cheat,2,1,0,0,1,1,-1,0.076923077,0.1,-0.076923077,0.1,ouaa8yuqqxal8ioj,29,1
19,20,oy8wn5im,y9iygxxf,365,368,11,10,Control,Don't Cheat,2,1,0,0,1,1,-1,0.076923077,0.1,-0.076923077,0.1,oy8wn5imy9iygxxf,29,1
21,22,9smjkz19,6ub1usmw,395,408,14,14,Don't Control,Don't Cheat,4,0,1,0,1,0,0,0,0,0,0,9smjkz196ub1usmw,29,1
23,24,0bmasffv,6zqxv643,334,310,11,10,Control,Don't Cheat,2,1,0,0,1,1,-1,0.076923077,0.1,-0.076923077,0.1,0bmasffv6zqxv643,29,1
25,26,sj2ft9f6,6fsse8c1,308,230,11,10,Control,Don't Cheat,2,1,0,0,1,1,-1,0.076923077,0.1,-0.076923077,0.1,sj2ft9f66fsse8c1,29,1
27,28,rj5j60np,i7rlg7cc,329,320,11,10,Control,Don't Cheat,2,1,0,0,1,1,-1,0.076923077,0.1,-0.076923077,0.1,rj5j60npi7rlg7cc,29,1
1,2,265l99ai,2fsj9qvt,406,418,14,14,Don't Control,Don't Cheat,4,0,1,0,1,0,0,0,0,0,0,265l99ai2fsj9qvt,30,1
3,4,7xjh9hwo,e8jis7nf,325,310,11,10,Control,Don't Cheat,2,1,0,0,1,1,-1,0.076923077,0.1,-0.076923077,0.1,7xjh9hwoe8jis7nf,30,1
5,6,zo9j0hsi,iyu7t1vc,283,350,11,10,Control,Don't Cheat,2,1,0,0,1,1,-1,0.076923077,0.1,-0.076923077,0.1,zo9j0hsiiyu7t1vc,30,1
7,8,3fmd8mik,qkypffhk,420,420,14,14,Don't Control,Don't Cheat,4,0,1,0,1,0,0,0,0,0,0,3fmd8mikqkypffhk,30,1
9,10,r3oyr52t,3u51j68w,321,438,3,16,Don't Control,Cheat,3,0,1,1,0,-13,13,1,1.3,1,-1.3,r3oyr52t3u51j68w,30,1
11,12,xtfge1ys,i2nn9ow6,352,178,11,10,Control,Don't Cheat,2,1,0,0,1,1,-1,0.076923077,0.1,-0.076923077,0.1,xtfge1ysi2nn9ow6,30,1
13,14,uwz2vbjr,b7ctrqau,333,304,11,10,Control,Don't Cheat,2,1,0,0,1,1,-1,0.076923077,0.1,-0.076923077,0.1,uwz2vbjrb7ctrqau,30,1
15,16,ipmny9rq,i18sqw1f,417,416,14,14,Don't Control,Don't Cheat,4,0,1,0,1,0,0,0,0,0,0,ipmny9rqi18sqw1f,30,1
17,18,ouaa8yuq,qxal8ioj,370,368,3,16,Don't Control,Cheat,3,0,1,1,0,-13,13,1,1.3,1,-1.3,ouaa8yuqqxal8ioj,30,1
19,20,oy8wn5im,y9iygxxf,379,382,14,14,Don't Control,Don't Cheat,4,0,1,0,1,0,0,0,0,0,0,oy8wn5imy9iygxxf,30,1
21,22,9smjkz19,6ub1usmw,409,422,14,14,Don't Control,Don't Cheat,4,0,1,0,1,0,0,0,0,0,0,9smjkz196ub1usmw,30,1
23,24,0bmasffv,6zqxv643,345,320,11,10,Control,Don't Cheat,2,1,0,0,1,1,-1,0.076923077,0.1,-0.076923077,0.1,0bmasffv6zqxv643,30,1
25,26,sj2ft9f6,6fsse8c1,319,240,11,10,Control,Don't Cheat,2,1,0,0,1,1,-1,0.076923077,0.1,-0.076923077,0.1,sj2ft9f66fsse8c1,30,1
27,28,rj5j60np,i7rlg7cc,340,330,11,10,Control,Don't Cheat,2,1,0,0,1,1,-1,0.076923077,0.1,-0.076923077,0.1,rj5j60npi7rlg7cc,30,1
1,2,265l99ai,2fsj9qvt,420,432,14,14,Don't Control,Don't Cheat,4,0,1,0,1,0,0,0,0,0,0,265l99ai2fsj9qvt,31,1
3,4,7xjh9hwo,e8jis7nf,336,320,11,10,Control,Don't Cheat,2,1,0,0,1,1,-1,0.076923077,0.1,-0.076923077,0.1,7xjh9hwoe8jis7nf,31,1
5,6,zo9j0hsi,iyu7t1vc,294,360,11,10,Control,Don't Cheat,2,1,0,0,1,1,-1,0.076923077,0.1,-0.076923077,0.1,zo9j0hsiiyu7t1vc,31,1
7,8,3fmd8mik,qkypffhk,434,434,14,14,Don't Control,Don't Cheat,4,0,1,0,1,0,0,0,0,0,0,3fmd8mikqkypffhk,31,1
9,10,r3oyr52t,3u51j68w,324,454,3,16,Don't Control,Cheat,3,0,1,1,0,-13,13,1,1.3,1,-1.3,r3oyr52t3u51j68w,31,1
11,12,xtfge1ys,i2nn9ow6,363,188,11,10,Control,Don't Cheat,2,1,0,0,1,1,-1,0.076923077,0.1,-0.076923077,0.1,xtfge1ysi2nn9ow6,31,1
13,14,uwz2vbjr,b7ctrqau,344,314,11,10,Control,Don't Cheat,2,1,0,0,1,1,-1,0.076923077,0.1,-0.076923077,0.1,uwz2vbjrb7ctrqau,31,1
15,16,ipmny9rq,i18sqw1f,431,430,14,14,Don't Control,Don't Cheat,4,0,1,0,1,0,0,0,0,0,0,ipmny9rqi18sqw1f,31,1
17,18,ouaa8yuq,qxal8ioj,384,382,14,14,Don't Control,Don't Cheat,4,0,1,0,1,0,0,0,0,0,0,ouaa8yuqqxal8ioj,31,1
19,20,oy8wn5im,y9iygxxf,393,396,14,14,Don't Control,Don't Cheat,4,0,1,0,1,0,0,0,0,0,0,oy8wn5imy9iygxxf,31,1
21,22,9smjkz19,6ub1usmw,423,436,14,14,Don't Control,Don't Cheat,4,0,1,0,1,0,0,0,0,0,0,9smjkz196ub1usmw,31,1
23,24,0bmasffv,6zqxv643,356,330,11,10,Control,Don't Cheat,2,1,0,0,1,1,-1,0.076923077,0.1,-0.076923077,0.1,0bmasffv6zqxv643,31,1
25,26,sj2ft9f6,6fsse8c1,330,250,11,10,Control,Don't Cheat,2,1,0,0,1,1,-1,0.076923077,0.1,-0.076923077,0.1,sj2ft9f66fsse8c1,31,1
27,28,rj5j60np,i7rlg7cc,351,340,11,10,Control,Don't Cheat,2,1,0,0,1,1,-1,0.076923077,0.1,-0.076923077,0.1,rj5j60npi7rlg7cc,31,1
1,2,265l99ai,2fsj9qvt,434,446,14,14,Don't Control,Don't Cheat,4,0,1,0,1,0,0,0,0,0,0,265l99ai2fsj9qvt,32,1
3,4,7xjh9hwo,e8jis7nf,348,322,12,2,Control,Cheat,1,1,0,1,0,10,-10,0.769230769,1,-0.769230769,1,7xjh9hwoe8jis7nf,32,1
5,6,zo9j0hsi,iyu7t1vc,305,370,11,10,Control,Don't Cheat,2,1,0,0,1,1,-1,0.076923077,0.1,-0.076923077,0.1,zo9j0hsiiyu7t1vc,32,1
7,8,3fmd8mik,qkypffhk,448,448,14,14,Don't Control,Don't Cheat,4,0,1,0,1,0,0,0,0,0,0,3fmd8mikqkypffhk,32,1
9,10,r3oyr52t,3u51j68w,327,470,3,16,Don't Control,Cheat,3,0,1,1,0,-13,13,1,1.3,1,-1.3,r3oyr52t3u51j68w,32,1
11,12,xtfge1ys,i2nn9ow6,374,198,11,10,Control,Don't Cheat,2,1,0,0,1,1,-1,0.076923077,0.1,-0.076923077,0.1,xtfge1ysi2nn9ow6,32,1
13,14,uwz2vbjr,b7ctrqau,355,324,11,10,Control,Don't Cheat,2,1,0,0,1,1,-1,0.076923077,0.1,-0.076923077,0.1,uwz2vbjrb7ctrqau,32,1
15,16,ipmny9rq,i18sqw1f,445,444,14,14,Don't Control,Don't Cheat,4,0,1,0,1,0,0,0,0,0,0,ipmny9rqi18sqw1f,32,1
17,18,ouaa8yuq,qxal8ioj,398,396,14,14,Don't Control,Don't Cheat,4,0,1,0,1,0,0,0,0,0,0,ouaa8yuqqxal8ioj,32,1
19,20,oy8wn5im,y9iygxxf,404,406,11,10,Control,Don't Cheat,2,1,0,0,1,1,-1,0.076923077,0.1,-0.076923077,0.1,oy8wn5imy9iygxxf,32,1
21,22,9smjkz19,6ub1usmw,437,450,14,14,Don't Control,Don't Cheat,4,0,1,0,1,0,0,0,0,0,0,9smjkz196ub1usmw,32,1
23,24,0bmasffv,6zqxv643,370,344,14,14,Don't Control,Don't Cheat,4,0,1,0,1,0,0,0,0,0,0,0bmasffv6zqxv643,32,1
25,26,sj2ft9f6,6fsse8c1,333,266,3,16,Don't Control,Cheat,3,0,1,1,0,-13,13,1,1.3,1,-1.3,sj2ft9f66fsse8c1,32,1
27,28,rj5j60np,i7rlg7cc,362,350,11,10,Control,Don't Cheat,2,1,0,0,1,1,-1,0.076923077,0.1,-0.076923077,0.1,rj5j60npi7rlg7cc,32,1
1,2,265l99ai,2fsj9qvt,448,460,14,14,Don't Control,Don't Cheat,4,0,1,0,1,0,0,0,0,0,0,265l99ai2fsj9qvt,33,1
3,4,7xjh9hwo,e8jis7nf,359,332,11,10,Control,Don't Cheat,2,1,0,0,1,1,-1,0.076923077,0.1,-0.076923077,0.1,7xjh9hwoe8jis7nf,33,1
5,6,zo9j0hsi,iyu7t1vc,316,380,11,10,Control,Don't Cheat,2,1,0,0,1,1,-1,0.076923077,0.1,-0.076923077,0.1,zo9j0hsiiyu7t1vc,33,1
7,8,3fmd8mik,qkypffhk,462,462,14,14,Don't Control,Don't Cheat,4,0,1,0,1,0,0,0,0,0,0,3fmd8mikqkypffhk,33,1
9,10,r3oyr52t,3u51j68w,338,480,11,10,Control,Don't Cheat,2,1,0,0,1,1,-1,0.076923077,0.1,-0.076923077,0.1,r3oyr52t3u51j68w,33,1
11,12,xtfge1ys,i2nn9ow6,388,212,14,14,Don't Control,Don't Cheat,4,0,1,0,1,0,0,0,0,0,0,xtfge1ysi2nn9ow6,33,1
13,14,uwz2vbjr,b7ctrqau,366,334,11,10,Control,Don't Cheat,2,1,0,0,1,1,-1,0.076923077,0.1,-0.076923077,0.1,uwz2vbjrb7ctrqau,33,1
15,16,ipmny9rq,i18sqw1f,459,458,14,14,Don't Control,Don't Cheat,4,0,1,0,1,0,0,0,0,0,0,ipmny9rqi18sqw1f,33,1
17,18,ouaa8yuq,qxal8ioj,412,410,14,14,Don't Control,Don't Cheat,4,0,1,0,1,0,0,0,0,0,0,ouaa8yuqqxal8ioj,33,1
19,20,oy8wn5im,y9iygxxf,418,420,14,14,Don't Control,Don't Cheat,4,0,1,0,1,0,0,0,0,0,0,oy8wn5imy9iygxxf,33,1
21,22,9smjkz19,6ub1usmw,451,464,14,14,Don't Control,Don't Cheat,4,0,1,0,1,0,0,0,0,0,0,9smjkz196ub1usmw,33,1
23,24,0bmasffv,6zqxv643,384,358,14,14,Don't Control,Don't Cheat,4,0,1,0,1,0,0,0,0,0,0,0bmasffv6zqxv643,33,1
25,26,sj2ft9f6,6fsse8c1,336,282,3,16,Don't Control,Cheat,3,0,1,1,0,-13,13,1,1.3,1,-1.3,sj2ft9f66fsse8c1,33,1
27,28,rj5j60np,i7rlg7cc,373,360,11,10,Control,Don't Cheat,2,1,0,0,1,1,-1,0.076923077,0.1,-0.076923077,0.1,rj5j60npi7rlg7cc,33,1
1,2,265l99ai,2fsj9qvt,462,474,14,14,Don't Control,Don't Cheat,4,0,1,0,1,0,0,0,0,0,0,265l99ai2fsj9qvt,34,1
3,4,7xjh9hwo,e8jis7nf,370,342,11,10,Control,Don't Cheat,2,1,0,0,1,1,-1,0.076923077,0.1,-0.076923077,0.1,7xjh9hwoe8jis7nf,34,1
5,6,zo9j0hsi,iyu7t1vc,327,390,11,10,Control,Don't Cheat,2,1,0,0,1,1,-1,0.076923077,0.1,-0.076923077,0.1,zo9j0hsiiyu7t1vc,34,1
7,8,3fmd8mik,qkypffhk,476,476,14,14,Don't Control,Don't Cheat,4,0,1,0,1,0,0,0,0,0,0,3fmd8mikqkypffhk,34,1
9,10,r3oyr52t,3u51j68w,352,494,14,14,Don't Control,Don't Cheat,4,0,1,0,1,0,0,0,0,0,0,r3oyr52t3u51j68w,34,1
11,12,xtfge1ys,i2nn9ow6,402,226,14,14,Don't Control,Don't Cheat,4,0,1,0,1,0,0,0,0,0,0,xtfge1ysi2nn9ow6,34,1
13,14,uwz2vbjr,b7ctrqau,377,344,11,10,Control,Don't Cheat,2,1,0,0,1,1,-1,0.076923077,0.1,-0.076923077,0.1,uwz2vbjrb7ctrqau,34,1
15,16,ipmny9rq,i18sqw1f,473,472,14,14,Don't Control,Don't Cheat,4,0,1,0,1,0,0,0,0,0,0,ipmny9rqi18sqw1f,34,1
17,18,ouaa8yuq,qxal8ioj,426,424,14,14,Don't Control,Don't Cheat,4,0,1,0,1,0,0,0,0,0,0,ouaa8yuqqxal8ioj,34,1
19,20,oy8wn5im,y9iygxxf,432,434,14,14,Don't Control,Don't Cheat,4,0,1,0,1,0,0,0,0,0,0,oy8wn5imy9iygxxf,34,1
21,22,9smjkz19,6ub1usmw,465,478,14,14,Don't Control,Don't Cheat,4,0,1,0,1,0,0,0,0,0,0,9smjkz196ub1usmw,34,1
23,24,0bmasffv,6zqxv643,398,372,14,14,Don't Control,Don't Cheat,4,0,1,0,1,0,0,0,0,0,0,0bmasffv6zqxv643,34,1
25,26,sj2ft9f6,6fsse8c1,347,292,11,10,Control,Don't Cheat,2,1,0,0,1,1,-1,0.076923077,0.1,-0.076923077,0.1,sj2ft9f66fsse8c1,34,1
27,28,rj5j60np,i7rlg7cc,384,370,11,10,Control,Don't Cheat,2,1,0,0,1,1,-1,0.076923077,0.1,-0.076923077,0.1,rj5j60npi7rlg7cc,34,1
1,2,265l99ai,2fsj9qvt,476,488,14,14,Don't Control,Don't Cheat,4,0,1,0,1,0,0,0,0,0,0,265l99ai2fsj9qvt,35,1
3,4,7xjh9hwo,e8jis7nf,381,352,11,10,Control,Don't Cheat,2,1,0,0,1,1,-1,0.076923077,0.1,-0.076923077,0.1,7xjh9hwoe8jis7nf,35,1
5,6,zo9j0hsi,iyu7t1vc,338,400,11,10,Control,Don't Cheat,2,1,0,0,1,1,-1,0.076923077,0.1,-0.076923077,0.1,zo9j0hsiiyu7t1vc,35,1
7,8,3fmd8mik,qkypffhk,490,490,14,14,Don't Control,Don't Cheat,4,0,1,0,1,0,0,0,0,0,0,3fmd8mikqkypffhk,35,1
9,10,r3oyr52t,3u51j68w,366,508,14,14,Don't Control,Don't Cheat,4,0,1,0,1,0,0,0,0,0,0,r3oyr52t3u51j68w,35,1
11,12,xtfge1ys,i2nn9ow6,416,240,14,14,Don't Control,Don't Cheat,4,0,1,0,1,0,0,0,0,0,0,xtfge1ysi2nn9ow6,35,1
13,14,uwz2vbjr,b7ctrqau,388,354,11,10,Control,Don't Cheat,2,1,0,0,1,1,-1,0.076923077,0.1,-0.076923077,0.1,uwz2vbjrb7ctrqau,35,1
15,16,ipmny9rq,i18sqw1f,487,486,14,14,Don't Control,Don't Cheat,4,0,1,0,1,0,0,0,0,0,0,ipmny9rqi18sqw1f,35,1
17,18,ouaa8yuq,qxal8ioj,437,434,11,10,Control,Don't Cheat,2,1,0,0,1,1,-1,0.076923077,0.1,-0.076923077,0.1,ouaa8yuqqxal8ioj,35,1
19,20,oy8wn5im,y9iygxxf,443,444,11,10,Control,Don't Cheat,2,1,0,0,1,1,-1,0.076923077,0.1,-0.076923077,0.1,oy8wn5imy9iygxxf,35,1
21,22,9smjkz19,6ub1usmw,479,492,14,14,Don't Control,Don't Cheat,4,0,1,0,1,0,0,0,0,0,0,9smjkz196ub1usmw,35,1
23,24,0bmasffv,6zqxv643,412,386,14,14,Don't Control,Don't Cheat,4,0,1,0,1,0,0,0,0,0,0,0bmasffv6zqxv643,35,1
25,26,sj2ft9f6,6fsse8c1,359,294,12,2,Control,Cheat,1,1,0,1,0,10,-10,0.769230769,1,-0.769230769,1,sj2ft9f66fsse8c1,35,1
27,28,rj5j60np,i7rlg7cc,398,384,14,14,Don't Control,Don't Cheat,4,0,1,0,1,0,0,0,0,0,0,rj5j60npi7rlg7cc,35,1
1,2,265l99ai,2fsj9qvt,490,502,14,14,Don't Control,Don't Cheat,4,0,1,0,1,0,0,0,0,0,0,265l99ai2fsj9qvt,36,1
3,4,7xjh9hwo,e8jis7nf,392,362,11,10,Control,Don't Cheat,2,1,0,0,1,1,-1,0.076923077,0.1,-0.076923077,0.1,7xjh9hwoe8jis7nf,36,1
5,6,zo9j0hsi,iyu7t1vc,352,414,14,14,Don't Control,Don't Cheat,4,0,1,0,1,0,0,0,0,0,0,zo9j0hsiiyu7t1vc,36,1
7,8,3fmd8mik,qkypffhk,504,504,14,14,Don't Control,Don't Cheat,4,0,1,0,1,0,0,0,0,0,0,3fmd8mikqkypffhk,36,1
9,10,r3oyr52t,3u51j68w,380,522,14,14,Don't Control,Don't Cheat,4,0,1,0,1,0,0,0,0,0,0,r3oyr52t3u51j68w,36,1
11,12,xtfge1ys,i2nn9ow6,430,254,14,14,Don't Control,Don't Cheat,4,0,1,0,1,0,0,0,0,0,0,xtfge1ysi2nn9ow6,36,1
13,14,uwz2vbjr,b7ctrqau,399,364,11,10,Control,Don't Cheat,2,1,0,0,1,1,-1,0.076923077,0.1,-0.076923077,0.1,uwz2vbjrb7ctrqau,36,1
15,16,ipmny9rq,i18sqw1f,501,500,14,14,Don't Control,Don't Cheat,4,0,1,0,1,0,0,0,0,0,0,ipmny9rqi18sqw1f,36,1
17,18,ouaa8yuq,qxal8ioj,440,450,3,16,Don't Control,Cheat,3,0,1,1,0,-13,13,1,1.3,1,-1.3,ouaa8yuqqxal8ioj,36,1
19,20,oy8wn5im,y9iygxxf,454,454,11,10,Control,Don't Cheat,2,1,0,0,1,1,-1,0.076923077,0.1,-0.076923077,0.1,oy8wn5imy9iygxxf,36,1
21,22,9smjkz19,6ub1usmw,493,506,14,14,Don't Control,Don't Cheat,4,0,1,0,1,0,0,0,0,0,0,9smjkz196ub1usmw,36,1
23,24,0bmasffv,6zqxv643,426,400,14,14,Don't Control,Don't Cheat,4,0,1,0,1,0,0,0,0,0,0,0bmasffv6zqxv643,36,1
25,26,sj2ft9f6,6fsse8c1,371,296,12,2,Control,Cheat,1,1,0,1,0,10,-10,0.769230769,1,-0.769230769,1,sj2ft9f66fsse8c1,36,1
27,28,rj5j60np,i7rlg7cc,412,398,14,14,Don't Control,Don't Cheat,4,0,1,0,1,0,0,0,0,0,0,rj5j60npi7rlg7cc,36,1
1,2,265l99ai,2fsj9qvt,504,516,14,14,Don't Control,Don't Cheat,4,0,1,0,1,0,0,0,0,0,0,265l99ai2fsj9qvt,37,1
3,4,7xjh9hwo,e8jis7nf,403,372,11,10,Control,Don't Cheat,2,1,0,0,1,1,-1,0.076923077,0.1,-0.076923077,0.1,7xjh9hwoe8jis7nf,37,1
5,6,zo9j0hsi,iyu7t1vc,364,416,12,2,Control,Cheat,1,1,0,1,0,10,-10,0.769230769,1,-0.769230769,1,zo9j0hsiiyu7t1vc,37,1
7,8,3fmd8mik,qkypffhk,518,518,14,14,Don't Control,Don't Cheat,4,0,1,0,1,0,0,0,0,0,0,3fmd8mikqkypffhk,37,1
9,10,r3oyr52t,3u51j68w,394,536,14,14,Don't Control,Don't Cheat,4,0,1,0,1,0,0,0,0,0,0,r3oyr52t3u51j68w,37,1
11,12,xtfge1ys,i2nn9ow6,444,268,14,14,Don't Control,Don't Cheat,4,0,1,0,1,0,0,0,0,0,0,xtfge1ysi2nn9ow6,37,1
13,14,uwz2vbjr,b7ctrqau,410,374,11,10,Control,Don't Cheat,2,1,0,0,1,1,-1,0.076923077,0.1,-0.076923077,0.1,uwz2vbjrb7ctrqau,37,1
15,16,ipmny9rq,i18sqw1f,515,514,14,14,Don't Control,Don't Cheat,4,0,1,0,1,0,0,0,0,0,0,ipmny9rqi18sqw1f,37,1
17,18,ouaa8yuq,qxal8ioj,443,466,3,16,Don't Control,Cheat,3,0,1,1,0,-13,13,1,1.3,1,-1.3,ouaa8yuqqxal8ioj,37,1
19,20,oy8wn5im,y9iygxxf,465,464,11,10,Control,Don't Cheat,2,1,0,0,1,1,-1,0.076923077,0.1,-0.076923077,0.1,oy8wn5imy9iygxxf,37,1
21,22,9smjkz19,6ub1usmw,507,520,14,14,Don't Control,Don't Cheat,4,0,1,0,1,0,0,0,0,0,0,9smjkz196ub1usmw,37,1
23,24,0bmasffv,6zqxv643,440,414,14,14,Don't Control,Don't Cheat,4,0,1,0,1,0,0,0,0,0,0,0bmasffv6zqxv643,37,1
25,26,sj2ft9f6,6fsse8c1,374,312,3,16,Don't Control,Cheat,3,0,1,1,0,-13,13,1,1.3,1,-1.3,sj2ft9f66fsse8c1,37,1
27,28,rj5j60np,i7rlg7cc,423,408,11,10,Control,Don't Cheat,2,1,0,0,1,1,-1,0.076923077,0.1,-0.076923077,0.1,rj5j60npi7rlg7cc,37,1
1,2,265l99ai,2fsj9qvt,518,530,14,14,Don't Control,Don't Cheat,4,0,1,0,1,0,0,0,0,0,0,265l99ai2fsj9qvt,38,1
3,4,7xjh9hwo,e8jis7nf,414,382,11,10,Control,Don't Cheat,2,1,0,0,1,1,-1,0.076923077,0.1,-0.076923077,0.1,7xjh9hwoe8jis7nf,38,1
5,6,zo9j0hsi,iyu7t1vc,376,418,12,2,Control,Cheat,1,1,0,1,0,10,-10,0.769230769,1,-0.769230769,1,zo9j0hsiiyu7t1vc,38,1
7,8,3fmd8mik,qkypffhk,532,532,14,14,Don't Control,Don't Cheat,4,0,1,0,1,0,0,0,0,0,0,3fmd8mikqkypffhk,38,1
9,10,r3oyr52t,3u51j68w,397,552,3,16,Don't Control,Cheat,3,0,1,1,0,-13,13,1,1.3,1,-1.3,r3oyr52t3u51j68w,38,1
11,12,xtfge1ys,i2nn9ow6,458,282,14,14,Don't Control,Don't Cheat,4,0,1,0,1,0,0,0,0,0,0,xtfge1ysi2nn9ow6,38,1
13,14,uwz2vbjr,b7ctrqau,421,384,11,10,Control,Don't Cheat,2,1,0,0,1,1,-1,0.076923077,0.1,-0.076923077,0.1,uwz2vbjrb7ctrqau,38,1
15,16,ipmny9rq,i18sqw1f,529,528,14,14,Don't Control,Don't Cheat,4,0,1,0,1,0,0,0,0,0,0,ipmny9rqi18sqw1f,38,1
17,18,ouaa8yuq,qxal8ioj,455,468,12,2,Control,Cheat,1,1,0,1,0,10,-10,0.769230769,1,-0.769230769,1,ouaa8yuqqxal8ioj,38,1
19,20,oy8wn5im,y9iygxxf,479,478,14,14,Don't Control,Don't Cheat,4,0,1,0,1,0,0,0,0,0,0,oy8wn5imy9iygxxf,38,1
21,22,9smjkz19,6ub1usmw,521,534,14,14,Don't Control,Don't Cheat,4,0,1,0,1,0,0,0,0,0,0,9smjkz196ub1usmw,38,1
23,24,0bmasffv,6zqxv643,454,428,14,14,Don't Control,Don't Cheat,4,0,1,0,1,0,0,0,0,0,0,0bmasffv6zqxv643,38,1
25,26,sj2ft9f6,6fsse8c1,386,314,12,2,Control,Cheat,1,1,0,1,0,10,-10,0.769230769,1,-0.769230769,1,sj2ft9f66fsse8c1,38,1
27,28,rj5j60np,i7rlg7cc,437,422,14,14,Don't Control,Don't Cheat,4,0,1,0,1,0,0,0,0,0,0,rj5j60npi7rlg7cc,38,1
1,2,265l99ai,2fsj9qvt,532,544,14,14,Don't Control,Don't Cheat,4,0,1,0,1,0,0,0,0,0,0,265l99ai2fsj9qvt,39,1
3,4,7xjh9hwo,e8jis7nf,425,392,11,10,Control,Don't Cheat,2,1,0,0,1,1,-1,0.076923077,0.1,-0.076923077,0.1,7xjh9hwoe8jis7nf,39,1
5,6,zo9j0hsi,iyu7t1vc,387,428,11,10,Control,Don't Cheat,2,1,0,0,1,1,-1,0.076923077,0.1,-0.076923077,0.1,zo9j0hsiiyu7t1vc,39,1
7,8,3fmd8mik,qkypffhk,546,546,14,14,Don't Control,Don't Cheat,4,0,1,0,1,0,0,0,0,0,0,3fmd8mikqkypffhk,39,1
9,10,r3oyr52t,3u51j68w,408,562,11,10,Control,Don't Cheat,2,1,0,0,1,1,-1,0.076923077,0.1,-0.076923077,0.1,r3oyr52t3u51j68w,39,1
11,12,xtfge1ys,i2nn9ow6,472,296,14,14,Don't Control,Don't Cheat,4,0,1,0,1,0,0,0,0,0,0,xtfge1ysi2nn9ow6,39,1
13,14,uwz2vbjr,b7ctrqau,432,394,11,10,Control,Don't Cheat,2,1,0,0,1,1,-1,0.076923077,0.1,-0.076923077,0.1,uwz2vbjrb7ctrqau,39,1
15,16,ipmny9rq,i18sqw1f,543,542,14,14,Don't Control,Don't Cheat,4,0,1,0,1,0,0,0,0,0,0,ipmny9rqi18sqw1f,39,1
17,18,ouaa8yuq,qxal8ioj,466,478,11,10,Control,Don't Cheat,2,1,0,0,1,1,-1,0.076923077,0.1,-0.076923077,0.1,ouaa8yuqqxal8ioj,39,1
19,20,oy8wn5im,y9iygxxf,493,492,14,14,Don't Control,Don't Cheat,4,0,1,0,1,0,0,0,0,0,0,oy8wn5imy9iygxxf,39,1
21,22,9smjkz19,6ub1usmw,535,548,14,14,Don't Control,Don't Cheat,4,0,1,0,1,0,0,0,0,0,0,9smjkz196ub1usmw,39,1
23,24,0bmasffv,6zqxv643,468,442,14,14,Don't Control,Don't Cheat,4,0,1,0,1,0,0,0,0,0,0,0bmasffv6zqxv643,39,1
25,26,sj2ft9f6,6fsse8c1,398,316,12,2,Control,Cheat,1,1,0,1,0,10,-10,0.769230769,1,-0.769230769,1,sj2ft9f66fsse8c1,39,1
27,28,rj5j60np,i7rlg7cc,448,432,11,10,Control,Don't Cheat,2,1,0,0,1,1,-1,0.076923077,0.1,-0.076923077,0.1,rj5j60npi7rlg7cc,39,1
1,2,265l99ai,2fsj9qvt,546,558,14,14,Don't Control,Don't Cheat,4,0,1,0,1,0,0,0,0,0,0,265l99ai2fsj9qvt,40,1
3,4,7xjh9hwo,e8jis7nf,436,402,11,10,Control,Don't Cheat,2,1,0,0,1,1,-1,0.076923077,0.1,-0.076923077,0.1,7xjh9hwoe8jis7nf,40,1
5,6,zo9j0hsi,iyu7t1vc,398,438,11,10,Control,Don't Cheat,2,1,0,0,1,1,-1,0.076923077,0.1,-0.076923077,0.1,zo9j0hsiiyu7t1vc,40,1
7,8,3fmd8mik,qkypffhk,560,560,14,14,Don't Control,Don't Cheat,4,0,1,0,1,0,0,0,0,0,0,3fmd8mikqkypffhk,40,1
9,10,r3oyr52t,3u51j68w,422,576,14,14,Don't Control,Don't Cheat,4,0,1,0,1,0,0,0,0,0,0,r3oyr52t3u51j68w,40,1
11,12,xtfge1ys,i2nn9ow6,486,310,14,14,Don't Control,Don't Cheat,4,0,1,0,1,0,0,0,0,0,0,xtfge1ysi2nn9ow6,40,1
13,14,uwz2vbjr,b7ctrqau,443,404,11,10,Control,Don't Cheat,2,1,0,0,1,1,-1,0.076923077,0.1,-0.076923077,0.1,uwz2vbjrb7ctrqau,40,1
15,16,ipmny9rq,i18sqw1f,557,556,14,14,Don't Control,Don't Cheat,4,0,1,0,1,0,0,0,0,0,0,ipmny9rqi18sqw1f,40,1
17,18,ouaa8yuq,qxal8ioj,477,488,11,10,Control,Don't Cheat,2,1,0,0,1,1,-1,0.076923077,0.1,-0.076923077,0.1,ouaa8yuqqxal8ioj,40,1
19,20,oy8wn5im,y9iygxxf,507,506,14,14,Don't Control,Don't Cheat,4,0,1,0,1,0,0,0,0,0,0,oy8wn5imy9iygxxf,40,1
21,22,9smjkz19,6ub1usmw,549,562,14,14,Don't Control,Don't Cheat,4,0,1,0,1,0,0,0,0,0,0,9smjkz196ub1usmw,40,1
23,24,0bmasffv,6zqxv643,482,456,14,14,Don't Control,Don't Cheat,4,0,1,0,1,0,0,0,0,0,0,0bmasffv6zqxv643,40,1
25,26,sj2ft9f6,6fsse8c1,412,330,14,14,Don't Control,Don't Cheat,4,0,1,0,1,0,0,0,0,0,0,sj2ft9f66fsse8c1,40,1
27,28,rj5j60np,i7rlg7cc,459,442,11,10,Control,Don't Cheat,2,1,0,0,1,1,-1,0.076923077,0.1,-0.076923077,0.1,rj5j60npi7rlg7cc,40,1
1,2,265l99ai,2fsj9qvt,560,572,14,14,Don't Control,Don't Cheat,4,0,1,0,1,0,0,0,0,0,0,265l99ai2fsj9qvt,41,1
3,4,7xjh9hwo,e8jis7nf,447,412,11,10,Control,Don't Cheat,2,1,0,0,1,1,-1,0.076923077,0.1,-0.076923077,0.1,7xjh9hwoe8jis7nf,41,1
5,6,zo9j0hsi,iyu7t1vc,409,448,11,10,Control,Don't Cheat,2,1,0,0,1,1,-1,0.076923077,0.1,-0.076923077,0.1,zo9j0hsiiyu7t1vc,41,1
7,8,3fmd8mik,qkypffhk,574,574,14,14,Don't Control,Don't Cheat,4,0,1,0,1,0,0,0,0,0,0,3fmd8mikqkypffhk,41,1
9,10,r3oyr52t,3u51j68w,436,590,14,14,Don't Control,Don't Cheat,4,0,1,0,1,0,0,0,0,0,0,r3oyr52t3u51j68w,41,1
11,12,xtfge1ys,i2nn9ow6,500,324,14,14,Don't Control,Don't Cheat,4,0,1,0,1,0,0,0,0,0,0,xtfge1ysi2nn9ow6,41,1
13,14,uwz2vbjr,b7ctrqau,454,414,11,10,Control,Don't Cheat,2,1,0,0,1,1,-1,0.076923077,0.1,-0.076923077,0.1,uwz2vbjrb7ctrqau,41,1
15,16,ipmny9rq,i18sqw1f,571,570,14,14,Don't Control,Don't Cheat,4,0,1,0,1,0,0,0,0,0,0,ipmny9rqi18sqw1f,41,1
17,18,ouaa8yuq,qxal8ioj,488,498,11,10,Control,Don't Cheat,2,1,0,0,1,1,-1,0.076923077,0.1,-0.076923077,0.1,ouaa8yuqqxal8ioj,41,1
19,20,oy8wn5im,y9iygxxf,521,520,14,14,Don't Control,Don't Cheat,4,0,1,0,1,0,0,0,0,0,0,oy8wn5imy9iygxxf,41,1
21,22,9smjkz19,6ub1usmw,563,576,14,14,Don't Control,Don't Cheat,4,0,1,0,1,0,0,0,0,0,0,9smjkz196ub1usmw,41,1
23,24,0bmasffv,6zqxv643,493,466,11,10,Control,Don't Cheat,2,1,0,0,1,1,-1,0.076923077,0.1,-0.076923077,0.1,0bmasffv6zqxv643,41,1
25,26,sj2ft9f6,6fsse8c1,423,340,11,10,Control,Don't Cheat,2,1,0,0,1,1,-1,0.076923077,0.1,-0.076923077,0.1,sj2ft9f66fsse8c1,41,1
27,28,rj5j60np,i7rlg7cc,473,456,14,14,Don't Control,Don't Cheat,4,0,1,0,1,0,0,0,0,0,0,rj5j60npi7rlg7cc,41,1
1,2,265l99ai,2fsj9qvt,574,586,14,14,Don't Control,Don't Cheat,4,0,1,0,1,0,0,0,0,0,0,265l99ai2fsj9qvt,42,1
3,4,7xjh9hwo,e8jis7nf,458,422,11,10,Control,Don't Cheat,2,1,0,0,1,1,-1,0.076923077,0.1,-0.076923077,0.1,7xjh9hwoe8jis7nf,42,1
5,6,zo9j0hsi,iyu7t1vc,420,458,11,10,Control,Don't Cheat,2,1,0,0,1,1,-1,0.076923077,0.1,-0.076923077,0.1,zo9j0hsiiyu7t1vc,42,1
7,8,3fmd8mik,qkypffhk,588,588,14,14,Don't Control,Don't Cheat,4,0,1,0,1,0,0,0,0,0,0,3fmd8mikqkypffhk,42,1
9,10,r3oyr52t,3u51j68w,450,604,14,14,Don't Control,Don't Cheat,4,0,1,0,1,0,0,0,0,0,0,r3oyr52t3u51j68w,42,1
11,12,xtfge1ys,i2nn9ow6,514,338,14,14,Don't Control,Don't Cheat,4,0,1,0,1,0,0,0,0,0,0,xtfge1ysi2nn9ow6,42,1
13,14,uwz2vbjr,b7ctrqau,465,424,11,10,Control,Don't Cheat,2,1,0,0,1,1,-1,0.076923077,0.1,-0.076923077,0.1,uwz2vbjrb7ctrqau,42,1
15,16,ipmny9rq,i18sqw1f,585,584,14,14,Don't Control,Don't Cheat,4,0,1,0,1,0,0,0,0,0,0,ipmny9rqi18sqw1f,42,1
17,18,ouaa8yuq,qxal8ioj,502,512,14,14,Don't Control,Don't Cheat,4,0,1,0,1,0,0,0,0,0,0,ouaa8yuqqxal8ioj,42,1
19,20,oy8wn5im,y9iygxxf,532,530,11,10,Control,Don't Cheat,2,1,0,0,1,1,-1,0.076923077,0.1,-0.076923077,0.1,oy8wn5imy9iygxxf,42,1
21,22,9smjkz19,6ub1usmw,577,590,14,14,Don't Control,Don't Cheat,4,0,1,0,1,0,0,0,0,0,0,9smjkz196ub1usmw,42,1
23,24,0bmasffv,6zqxv643,507,480,14,14,Don't Control,Don't Cheat,4,0,1,0,1,0,0,0,0,0,0,0bmasffv6zqxv643,42,1
25,26,sj2ft9f6,6fsse8c1,435,342,12,2,Control,Cheat,1,1,0,1,0,10,-10,0.769230769,1,-0.769230769,1,sj2ft9f66fsse8c1,42,1
27,28,rj5j60np,i7rlg7cc,487,470,14,14,Don't Control,Don't Cheat,4,0,1,0,1,0,0,0,0,0,0,rj5j60npi7rlg7cc,42,1
1,2,265l99ai,2fsj9qvt,588,600,14,14,Don't Control,Don't Cheat,4,0,1,0,1,0,0,0,0,0,0,265l99ai2fsj9qvt,43,1
3,4,7xjh9hwo,e8jis7nf,469,432,11,10,Control,Don't Cheat,2,1,0,0,1,1,-1,0.076923077,0.1,-0.076923077,0.1,7xjh9hwoe8jis7nf,43,1
5,6,zo9j0hsi,iyu7t1vc,434,472,14,14,Don't Control,Don't Cheat,4,0,1,0,1,0,0,0,0,0,0,zo9j0hsiiyu7t1vc,43,1
7,8,3fmd8mik,qkypffhk,602,602,14,14,Don't Control,Don't Cheat,4,0,1,0,1,0,0,0,0,0,0,3fmd8mikqkypffhk,43,1
9,10,r3oyr52t,3u51j68w,464,618,14,14,Don't Control,Don't Cheat,4,0,1,0,1,0,0,0,0,0,0,r3oyr52t3u51j68w,43,1
11,12,xtfge1ys,i2nn9ow6,528,352,14,14,Don't Control,Don't Cheat,4,0,1,0,1,0,0,0,0,0,0,xtfge1ysi2nn9ow6,43,1
13,14,uwz2vbjr,b7ctrqau,476,434,11,10,Control,Don't Cheat,2,1,0,0,1,1,-1,0.076923077,0.1,-0.076923077,0.1,uwz2vbjrb7ctrqau,43,1
15,16,ipmny9rq,i18sqw1f,599,598,14,14,Don't Control,Don't Cheat,4,0,1,0,1,0,0,0,0,0,0,ipmny9rqi18sqw1f,43,1
17,18,ouaa8yuq,qxal8ioj,505,528,3,16,Don't Control,Cheat,3,0,1,1,0,-13,13,1,1.3,1,-1.3,ouaa8yuqqxal8ioj,43,1
19,20,oy8wn5im,y9iygxxf,543,540,11,10,Control,Don't Cheat,2,1,0,0,1,1,-1,0.076923077,0.1,-0.076923077,0.1,oy8wn5imy9iygxxf,43,1
21,22,9smjkz19,6ub1usmw,591,604,14,14,Don't Control,Don't Cheat,4,0,1,0,1,0,0,0,0,0,0,9smjkz196ub1usmw,43,1
23,24,0bmasffv,6zqxv643,518,490,11,10,Control,Don't Cheat,2,1,0,0,1,1,-1,0.076923077,0.1,-0.076923077,0.1,0bmasffv6zqxv643,43,1
25,26,sj2ft9f6,6fsse8c1,447,344,12,2,Control,Cheat,1,1,0,1,0,10,-10,0.769230769,1,-0.769230769,1,sj2ft9f66fsse8c1,43,1
27,28,rj5j60np,i7rlg7cc,501,484,14,14,Don't Control,Don't Cheat,4,0,1,0,1,0,0,0,0,0,0,rj5j60npi7rlg7cc,43,1
1,2,265l99ai,2fsj9qvt,602,614,14,14,Don't Control,Don't Cheat,4,0,1,0,1,0,0,0,0,0,0,265l99ai2fsj9qvt,44,1
3,4,7xjh9hwo,e8jis7nf,480,442,11,10,Control,Don't Cheat,2,1,0,0,1,1,-1,0.076923077,0.1,-0.076923077,0.1,7xjh9hwoe8jis7nf,44,1
5,6,zo9j0hsi,iyu7t1vc,445,482,11,10,Control,Don't Cheat,2,1,0,0,1,1,-1,0.076923077,0.1,-0.076923077,0.1,zo9j0hsiiyu7t1vc,44,1
7,8,3fmd8mik,qkypffhk,616,616,14,14,Don't Control,Don't Cheat,4,0,1,0,1,0,0,0,0,0,0,3fmd8mikqkypffhk,44,1
9,10,r3oyr52t,3u51j68w,478,632,14,14,Don't Control,Don't Cheat,4,0,1,0,1,0,0,0,0,0,0,r3oyr52t3u51j68w,44,1
11,12,xtfge1ys,i2nn9ow6,542,366,14,14,Don't Control,Don't Cheat,4,0,1,0,1,0,0,0,0,0,0,xtfge1ysi2nn9ow6,44,1
13,14,uwz2vbjr,b7ctrqau,487,444,11,10,Control,Don't Cheat,2,1,0,0,1,1,-1,0.076923077,0.1,-0.076923077,0.1,uwz2vbjrb7ctrqau,44,1
15,16,ipmny9rq,i18sqw1f,613,612,14,14,Don't Control,Don't Cheat,4,0,1,0,1,0,0,0,0,0,0,ipmny9rqi18sqw1f,44,1
17,18,ouaa8yuq,qxal8ioj,516,538,11,10,Control,Don't Cheat,2,1,0,0,1,1,-1,0.076923077,0.1,-0.076923077,0.1,ouaa8yuqqxal8ioj,44,1
19,20,oy8wn5im,y9iygxxf,554,550,11,10,Control,Don't Cheat,2,1,0,0,1,1,-1,0.076923077,0.1,-0.076923077,0.1,oy8wn5imy9iygxxf,44,1
21,22,9smjkz19,6ub1usmw,605,618,14,14,Don't Control,Don't Cheat,4,0,1,0,1,0,0,0,0,0,0,9smjkz196ub1usmw,44,1
23,24,0bmasffv,6zqxv643,532,504,14,14,Don't Control,Don't Cheat,4,0,1,0,1,0,0,0,0,0,0,0bmasffv6zqxv643,44,1
25,26,sj2ft9f6,6fsse8c1,458,354,11,10,Control,Don't Cheat,2,1,0,0,1,1,-1,0.076923077,0.1,-0.076923077,0.1,sj2ft9f66fsse8c1,44,1
27,28,rj5j60np,i7rlg7cc,512,494,11,10,Control,Don't Cheat,2,1,0,0,1,1,-1,0.076923077,0.1,-0.076923077,0.1,rj5j60npi7rlg7cc,44,1
1,2,265l99ai,2fsj9qvt,616,628,14,14,Don't Control,Don't Cheat,4,0,1,0,1,0,0,0,0,0,0,265l99ai2fsj9qvt,45,1
3,4,7xjh9hwo,e8jis7nf,491,452,11,10,Control,Don't Cheat,2,1,0,0,1,1,-1,0.076923077,0.1,-0.076923077,0.1,7xjh9hwoe8jis7nf,45,1
5,6,zo9j0hsi,iyu7t1vc,456,492,11,10,Control,Don't Cheat,2,1,0,0,1,1,-1,0.076923077,0.1,-0.076923077,0.1,zo9j0hsiiyu7t1vc,45,1
7,8,3fmd8mik,qkypffhk,630,630,14,14,Don't Control,Don't Cheat,4,0,1,0,1,0,0,0,0,0,0,3fmd8mikqkypffhk,45,1
9,10,r3oyr52t,3u51j68w,492,646,14,14,Don't Control,Don't Cheat,4,0,1,0,1,0,0,0,0,0,0,r3oyr52t3u51j68w,45,1
11,12,xtfge1ys,i2nn9ow6,556,380,14,14,Don't Control,Don't Cheat,4,0,1,0,1,0,0,0,0,0,0,xtfge1ysi2nn9ow6,45,1
13,14,uwz2vbjr,b7ctrqau,498,454,11,10,Control,Don't Cheat,2,1,0,0,1,1,-1,0.076923077,0.1,-0.076923077,0.1,uwz2vbjrb7ctrqau,45,1
15,16,ipmny9rq,i18sqw1f,627,626,14,14,Don't Control,Don't Cheat,4,0,1,0,1,0,0,0,0,0,0,ipmny9rqi18sqw1f,45,1
17,18,ouaa8yuq,qxal8ioj,527,548,11,10,Control,Don't Cheat,2,1,0,0,1,1,-1,0.076923077,0.1,-0.076923077,0.1,ouaa8yuqqxal8ioj,45,1
19,20,oy8wn5im,y9iygxxf,565,560,11,10,Control,Don't Cheat,2,1,0,0,1,1,-1,0.076923077,0.1,-0.076923077,0.1,oy8wn5imy9iygxxf,45,1
21,22,9smjkz19,6ub1usmw,619,632,14,14,Don't Control,Don't Cheat,4,0,1,0,1,0,0,0,0,0,0,9smjkz196ub1usmw,45,1
23,24,0bmasffv,6zqxv643,543,514,11,10,Control,Don't Cheat,2,1,0,0,1,1,-1,0.076923077,0.1,-0.076923077,0.1,0bmasffv6zqxv643,45,1
25,26,sj2ft9f6,6fsse8c1,470,356,12,2,Control,Cheat,1,1,0,1,0,10,-10,0.769230769,1,-0.769230769,1,sj2ft9f66fsse8c1,45,1
27,28,rj5j60np,i7rlg7cc,523,504,11,10,Control,Don't Cheat,2,1,0,0,1,1,-1,0.076923077,0.1,-0.076923077,0.1,rj5j60npi7rlg7cc,45,1
1,2,265l99ai,2fsj9qvt,630,642,14,14,Don't Control,Don't Cheat,4,0,1,0,1,0,0,0,0,0,0,265l99ai2fsj9qvt,46,1
3,4,7xjh9hwo,e8jis7nf,502,462,11,10,Control,Don't Cheat,2,1,0,0,1,1,-1,0.076923077,0.1,-0.076923077,0.1,7xjh9hwoe8jis7nf,46,1
5,6,zo9j0hsi,iyu7t1vc,467,502,11,10,Control,Don't Cheat,2,1,0,0,1,1,-1,0.076923077,0.1,-0.076923077,0.1,zo9j0hsiiyu7t1vc,46,1
7,8,3fmd8mik,qkypffhk,644,644,14,14,Don't Control,Don't Cheat,4,0,1,0,1,0,0,0,0,0,0,3fmd8mikqkypffhk,46,1
9,10,r3oyr52t,3u51j68w,506,660,14,14,Don't Control,Don't Cheat,4,0,1,0,1,0,0,0,0,0,0,r3oyr52t3u51j68w,46,1
11,12,xtfge1ys,i2nn9ow6,570,394,14,14,Don't Control,Don't Cheat,4,0,1,0,1,0,0,0,0,0,0,xtfge1ysi2nn9ow6,46,1
13,14,uwz2vbjr,b7ctrqau,509,464,11,10,Control,Don't Cheat,2,1,0,0,1,1,-1,0.076923077,0.1,-0.076923077,0.1,uwz2vbjrb7ctrqau,46,1
15,16,ipmny9rq,i18sqw1f,641,640,14,14,Don't Control,Don't Cheat,4,0,1,0,1,0,0,0,0,0,0,ipmny9rqi18sqw1f,46,1
17,18,ouaa8yuq,qxal8ioj,538,558,11,10,Control,Don't Cheat,2,1,0,0,1,1,-1,0.076923077,0.1,-0.076923077,0.1,ouaa8yuqqxal8ioj,46,1
19,20,oy8wn5im,y9iygxxf,576,570,11,10,Control,Don't Cheat,2,1,0,0,1,1,-1,0.076923077,0.1,-0.076923077,0.1,oy8wn5imy9iygxxf,46,1
21,22,9smjkz19,6ub1usmw,633,646,14,14,Don't Control,Don't Cheat,4,0,1,0,1,0,0,0,0,0,0,9smjkz196ub1usmw,46,1
23,24,0bmasffv,6zqxv643,554,524,11,10,Control,Don't Cheat,2,1,0,0,1,1,-1,0.076923077,0.1,-0.076923077,0.1,0bmasffv6zqxv643,46,1
25,26,sj2ft9f6,6fsse8c1,473,372,3,16,Don't Control,Cheat,3,0,1,1,0,-13,13,1,1.3,1,-1.3,sj2ft9f66fsse8c1,46,1
27,28,rj5j60np,i7rlg7cc,534,514,11,10,Control,Don't Cheat,2,1,0,0,1,1,-1,0.076923077,0.1,-0.076923077,0.1,rj5j60npi7rlg7cc,46,1
1,2,265l99ai,2fsj9qvt,644,656,14,14,Don't Control,Don't Cheat,4,0,1,0,1,0,0,0,0,0,0,265l99ai2fsj9qvt,47,1
3,4,7xjh9hwo,e8jis7nf,513,472,11,10,Control,Don't Cheat,2,1,0,0,1,1,-1,0.076923077,0.1,-0.076923077,0.1,7xjh9hwoe8jis7nf,47,1
5,6,zo9j0hsi,iyu7t1vc,481,516,14,14,Don't Control,Don't Cheat,4,0,1,0,1,0,0,0,0,0,0,zo9j0hsiiyu7t1vc,47,1
7,8,3fmd8mik,qkypffhk,658,658,14,14,Don't Control,Don't Cheat,4,0,1,0,1,0,0,0,0,0,0,3fmd8mikqkypffhk,47,1
9,10,r3oyr52t,3u51j68w,509,676,3,16,Don't Control,Cheat,3,0,1,1,0,-13,13,1,1.3,1,-1.3,r3oyr52t3u51j68w,47,1
11,12,xtfge1ys,i2nn9ow6,573,410,3,16,Don't Control,Cheat,3,0,1,1,0,-13,13,1,1.3,1,-1.3,xtfge1ysi2nn9ow6,47,1
13,14,uwz2vbjr,b7ctrqau,520,474,11,10,Control,Don't Cheat,2,1,0,0,1,1,-1,0.076923077,0.1,-0.076923077,0.1,uwz2vbjrb7ctrqau,47,1
15,16,ipmny9rq,i18sqw1f,655,654,14,14,Don't Control,Don't Cheat,4,0,1,0,1,0,0,0,0,0,0,ipmny9rqi18sqw1f,47,1
17,18,ouaa8yuq,qxal8ioj,549,568,11,10,Control,Don't Cheat,2,1,0,0,1,1,-1,0.076923077,0.1,-0.076923077,0.1,ouaa8yuqqxal8ioj,47,1
19,20,oy8wn5im,y9iygxxf,590,584,14,14,Don't Control,Don't Cheat,4,0,1,0,1,0,0,0,0,0,0,oy8wn5imy9iygxxf,47,1
21,22,9smjkz19,6ub1usmw,647,660,14,14,Don't Control,Don't Cheat,4,0,1,0,1,0,0,0,0,0,0,9smjkz196ub1usmw,47,1
23,24,0bmasffv,6zqxv643,565,534,11,10,Control,Don't Cheat,2,1,0,0,1,1,-1,0.076923077,0.1,-0.076923077,0.1,0bmasffv6zqxv643,47,1
25,26,sj2ft9f6,6fsse8c1,484,382,11,10,Control,Don't Cheat,2,1,0,0,1,1,-1,0.076923077,0.1,-0.076923077,0.1,sj2ft9f66fsse8c1,47,1
27,28,rj5j60np,i7rlg7cc,545,524,11,10,Control,Don't Cheat,2,1,0,0,1,1,-1,0.076923077,0.1,-0.076923077,0.1,rj5j60npi7rlg7cc,47,1
1,2,265l99ai,2fsj9qvt,658,670,14,14,Don't Control,Don't Cheat,4,0,1,0,1,0,0,0,0,0,0,265l99ai2fsj9qvt,48,1
3,4,7xjh9hwo,e8jis7nf,524,482,11,10,Control,Don't Cheat,2,1,0,0,1,1,-1,0.076923077,0.1,-0.076923077,0.1,7xjh9hwoe8jis7nf,48,1
5,6,zo9j0hsi,iyu7t1vc,492,526,11,10,Control,Don't Cheat,2,1,0,0,1,1,-1,0.076923077,0.1,-0.076923077,0.1,zo9j0hsiiyu7t1vc,48,1
7,8,3fmd8mik,qkypffhk,672,672,14,14,Don't Control,Don't Cheat,4,0,1,0,1,0,0,0,0,0,0,3fmd8mikqkypffhk,48,1
9,10,r3oyr52t,3u51j68w,520,686,11,10,Control,Don't Cheat,2,1,0,0,1,1,-1,0.076923077,0.1,-0.076923077,0.1,r3oyr52t3u51j68w,48,1
11,12,xtfge1ys,i2nn9ow6,585,412,12,2,Control,Cheat,1,1,0,1,0,10,-10,0.769230769,1,-0.769230769,1,xtfge1ysi2nn9ow6,48,1
13,14,uwz2vbjr,b7ctrqau,531,484,11,10,Control,Don't Cheat,2,1,0,0,1,1,-1,0.076923077,0.1,-0.076923077,0.1,uwz2vbjrb7ctrqau,48,1
15,16,ipmny9rq,i18sqw1f,669,668,14,14,Don't Control,Don't Cheat,4,0,1,0,1,0,0,0,0,0,0,ipmny9rqi18sqw1f,48,1
17,18,ouaa8yuq,qxal8ioj,563,582,14,14,Don't Control,Don't Cheat,4,0,1,0,1,0,0,0,0,0,0,ouaa8yuqqxal8ioj,48,1
19,20,oy8wn5im,y9iygxxf,604,598,14,14,Don't Control,Don't Cheat,4,0,1,0,1,0,0,0,0,0,0,oy8wn5imy9iygxxf,48,1
21,22,9smjkz19,6ub1usmw,661,674,14,14,Don't Control,Don't Cheat,4,0,1,0,1,0,0,0,0,0,0,9smjkz196ub1usmw,48,1
23,24,0bmasffv,6zqxv643,579,548,14,14,Don't Control,Don't Cheat,4,0,1,0,1,0,0,0,0,0,0,0bmasffv6zqxv643,48,1
25,26,sj2ft9f6,6fsse8c1,496,384,12,2,Control,Cheat,1,1,0,1,0,10,-10,0.769230769,1,-0.769230769,1,sj2ft9f66fsse8c1,48,1
27,28,rj5j60np,i7rlg7cc,559,538,14,14,Don't Control,Don't Cheat,4,0,1,0,1,0,0,0,0,0,0,rj5j60npi7rlg7cc,48,1
1,2,265l99ai,2fsj9qvt,672,684,14,14,Don't Control,Don't Cheat,4,0,1,0,1,0,0,0,0,0,0,265l99ai2fsj9qvt,49,1
3,4,7xjh9hwo,e8jis7nf,535,492,11,10,Control,Don't Cheat,2,1,0,0,1,1,-1,0.076923077,0.1,-0.076923077,0.1,7xjh9hwoe8jis7nf,49,1
5,6,zo9j0hsi,iyu7t1vc,503,536,11,10,Control,Don't Cheat,2,1,0,0,1,1,-1,0.076923077,0.1,-0.076923077,0.1,zo9j0hsiiyu7t1vc,49,1
7,8,3fmd8mik,qkypffhk,686,686,14,14,Don't Control,Don't Cheat,4,0,1,0,1,0,0,0,0,0,0,3fmd8mikqkypffhk,49,1
9,10,r3oyr52t,3u51j68w,534,700,14,14,Don't Control,Don't Cheat,4,0,1,0,1,0,0,0,0,0,0,r3oyr52t3u51j68w,49,1
11,12,xtfge1ys,i2nn9ow6,596,422,11,10,Control,Don't Cheat,2,1,0,0,1,1,-1,0.076923077,0.1,-0.076923077,0.1,xtfge1ysi2nn9ow6,49,1
13,14,uwz2vbjr,b7ctrqau,542,494,11,10,Control,Don't Cheat,2,1,0,0,1,1,-1,0.076923077,0.1,-0.076923077,0.1,uwz2vbjrb7ctrqau,49,1
15,16,ipmny9rq,i18sqw1f,683,682,14,14,Don't Control,Don't Cheat,4,0,1,0,1,0,0,0,0,0,0,ipmny9rqi18sqw1f,49,1
17,18,ouaa8yuq,qxal8ioj,577,596,14,14,Don't Control,Don't Cheat,4,0,1,0,1,0,0,0,0,0,0,ouaa8yuqqxal8ioj,49,1
19,20,oy8wn5im,y9iygxxf,618,612,14,14,Don't Control,Don't Cheat,4,0,1,0,1,0,0,0,0,0,0,oy8wn5imy9iygxxf,49,1
21,22,9smjkz19,6ub1usmw,675,688,14,14,Don't Control,Don't Cheat,4,0,1,0,1,0,0,0,0,0,0,9smjkz196ub1usmw,49,1
23,24,0bmasffv,6zqxv643,593,562,14,14,Don't Control,Don't Cheat,4,0,1,0,1,0,0,0,0,0,0,0bmasffv6zqxv643,49,1
25,26,sj2ft9f6,6fsse8c1,508,386,12,2,Control,Cheat,1,1,0,1,0,10,-10,0.769230769,1,-0.769230769,1,sj2ft9f66fsse8c1,49,1
27,28,rj5j60np,i7rlg7cc,570,548,11,10,Control,Don't Cheat,2,1,0,0,1,1,-1,0.076923077,0.1,-0.076923077,0.1,rj5j60npi7rlg7cc,49,1
1,2,265l99ai,2fsj9qvt,686,698,14,14,Don't Control,Don't Cheat,4,0,1,0,1,0,0,0,0,0,0,265l99ai2fsj9qvt,50,1
3,4,7xjh9hwo,e8jis7nf,546,502,11,10,Control,Don't Cheat,2,1,0,0,1,1,-1,0.076923077,0.1,-0.076923077,0.1,7xjh9hwoe8jis7nf,50,1
5,6,zo9j0hsi,iyu7t1vc,517,550,14,14,Don't Control,Don't Cheat,4,0,1,0,1,0,0,0,0,0,0,zo9j0hsiiyu7t1vc,50,1
7,8,3fmd8mik,qkypffhk,700,700,14,14,Don't Control,Don't Cheat,4,0,1,0,1,0,0,0,0,0,0,3fmd8mikqkypffhk,50,1
9,10,r3oyr52t,3u51j68w,548,714,14,14,Don't Control,Don't Cheat,4,0,1,0,1,0,0,0,0,0,0,r3oyr52t3u51j68w,50,1
11,12,xtfge1ys,i2nn9ow6,607,432,11,10,Control,Don't Cheat,2,1,0,0,1,1,-1,0.076923077,0.1,-0.076923077,0.1,xtfge1ysi2nn9ow6,50,1
13,14,uwz2vbjr,b7ctrqau,553,504,11,10,Control,Don't Cheat,2,1,0,0,1,1,-1,0.076923077,0.1,-0.076923077,0.1,uwz2vbjrb7ctrqau,50,1
15,16,ipmny9rq,i18sqw1f,697,696,14,14,Don't Control,Don't Cheat,4,0,1,0,1,0,0,0,0,0,0,ipmny9rqi18sqw1f,50,1
17,18,ouaa8yuq,qxal8ioj,588,606,11,10,Control,Don't Cheat,2,1,0,0,1,1,-1,0.076923077,0.1,-0.076923077,0.1,ouaa8yuqqxal8ioj,50,1
19,20,oy8wn5im,y9iygxxf,632,626,14,14,Don't Control,Don't Cheat,4,0,1,0,1,0,0,0,0,0,0,oy8wn5imy9iygxxf,50,1
21,22,9smjkz19,6ub1usmw,689,702,14,14,Don't Control,Don't Cheat,4,0,1,0,1,0,0,0,0,0,0,9smjkz196ub1usmw,50,1
23,24,0bmasffv,6zqxv643,607,576,14,14,Don't Control,Don't Cheat,4,0,1,0,1,0,0,0,0,0,0,0bmasffv6zqxv643,50,1
25,26,sj2ft9f6,6fsse8c1,519,396,11,10,Control,Don't Cheat,2,1,0,0,1,1,-1,0.076923077,0.1,-0.076923077,0.1,sj2ft9f66fsse8c1,50,1
27,28,rj5j60np,i7rlg7cc,581,558,11,10,Control,Don't Cheat,2,1,0,0,1,1,-1,0.076923077,0.1,-0.076923077,0.1,rj5j60npi7rlg7cc,50,1
1,2,265l99ai,2fsj9qvt,700,712,14,14,Don't Control,Don't Cheat,4,0,1,0,1,0,0,0,0,0,0,265l99ai2fsj9qvt,51,1
3,4,7xjh9hwo,e8jis7nf,557,512,11,10,Control,Don't Cheat,2,1,0,0,1,1,-1,0.076923077,0.1,-0.076923077,0.1,7xjh9hwoe8jis7nf,51,1
5,6,zo9j0hsi,iyu7t1vc,529,552,12,2,Control,Cheat,1,1,0,1,0,10,-10,0.769230769,1,-0.769230769,1,zo9j0hsiiyu7t1vc,51,1
7,8,3fmd8mik,qkypffhk,714,714,14,14,Don't Control,Don't Cheat,4,0,1,0,1,0,0,0,0,0,0,3fmd8mikqkypffhk,51,1
9,10,r3oyr52t,3u51j68w,562,728,14,14,Don't Control,Don't Cheat,4,0,1,0,1,0,0,0,0,0,0,r3oyr52t3u51j68w,51,1
11,12,xtfge1ys,i2nn9ow6,618,442,11,10,Control,Don't Cheat,2,1,0,0,1,1,-1,0.076923077,0.1,-0.076923077,0.1,xtfge1ysi2nn9ow6,51,1
13,14,uwz2vbjr,b7ctrqau,564,514,11,10,Control,Don't Cheat,2,1,0,0,1,1,-1,0.076923077,0.1,-0.076923077,0.1,uwz2vbjrb7ctrqau,51,1
15,16,ipmny9rq,i18sqw1f,711,710,14,14,Don't Control,Don't Cheat,4,0,1,0,1,0,0,0,0,0,0,ipmny9rqi18sqw1f,51,1
17,18,ouaa8yuq,qxal8ioj,602,620,14,14,Don't Control,Don't Cheat,4,0,1,0,1,0,0,0,0,0,0,ouaa8yuqqxal8ioj,51,1
19,20,oy8wn5im,y9iygxxf,643,636,11,10,Control,Don't Cheat,2,1,0,0,1,1,-1,0.076923077,0.1,-0.076923077,0.1,oy8wn5imy9iygxxf,51,1
21,22,9smjkz19,6ub1usmw,703,716,14,14,Don't Control,Don't Cheat,4,0,1,0,1,0,0,0,0,0,0,9smjkz196ub1usmw,51,1
23,24,0bmasffv,6zqxv643,621,590,14,14,Don't Control,Don't Cheat,4,0,1,0,1,0,0,0,0,0,0,0bmasffv6zqxv643,51,1
25,26,sj2ft9f6,6fsse8c1,531,398,12,2,Control,Cheat,1,1,0,1,0,10,-10,0.769230769,1,-0.769230769,1,sj2ft9f66fsse8c1,51,1
27,28,rj5j60np,i7rlg7cc,592,568,11,10,Control,Don't Cheat,2,1,0,0,1,1,-1,0.076923077,0.1,-0.076923077,0.1,rj5j60npi7rlg7cc,51,1
1,2,265l99ai,2fsj9qvt,714,726,14,14,Don't Control,Don't Cheat,4,0,1,0,1,0,0,0,0,0,0,265l99ai2fsj9qvt,52,1
3,4,7xjh9hwo,e8jis7nf,568,522,11,10,Control,Don't Cheat,2,1,0,0,1,1,-1,0.076923077,0.1,-0.076923077,0.1,7xjh9hwoe8jis7nf,52,1
5,6,zo9j0hsi,iyu7t1vc,541,554,12,2,Control,Cheat,1,1,0,1,0,10,-10,0.769230769,1,-0.769230769,1,zo9j0hsiiyu7t1vc,52,1
7,8,3fmd8mik,qkypffhk,728,728,14,14,Don't Control,Don't Cheat,4,0,1,0,1,0,0,0,0,0,0,3fmd8mikqkypffhk,52,1
9,10,r3oyr52t,3u51j68w,576,742,14,14,Don't Control,Don't Cheat,4,0,1,0,1,0,0,0,0,0,0,r3oyr52t3u51j68w,52,1
11,12,xtfge1ys,i2nn9ow6,632,456,14,14,Don't Control,Don't Cheat,4,0,1,0,1,0,0,0,0,0,0,xtfge1ysi2nn9ow6,52,1
13,14,uwz2vbjr,b7ctrqau,575,524,11,10,Control,Don't Cheat,2,1,0,0,1,1,-1,0.076923077,0.1,-0.076923077,0.1,uwz2vbjrb7ctrqau,52,1
15,16,ipmny9rq,i18sqw1f,725,724,14,14,Don't Control,Don't Cheat,4,0,1,0,1,0,0,0,0,0,0,ipmny9rqi18sqw1f,52,1
17,18,ouaa8yuq,qxal8ioj,616,634,14,14,Don't Control,Don't Cheat,4,0,1,0,1,0,0,0,0,0,0,ouaa8yuqqxal8ioj,52,1
19,20,oy8wn5im,y9iygxxf,654,646,11,10,Control,Don't Cheat,2,1,0,0,1,1,-1,0.076923077,0.1,-0.076923077,0.1,oy8wn5imy9iygxxf,52,1
21,22,9smjkz19,6ub1usmw,717,730,14,14,Don't Control,Don't Cheat,4,0,1,0,1,0,0,0,0,0,0,9smjkz196ub1usmw,52,1
23,24,0bmasffv,6zqxv643,635,604,14,14,Don't Control,Don't Cheat,4,0,1,0,1,0,0,0,0,0,0,0bmasffv6zqxv643,52,1
25,26,sj2ft9f6,6fsse8c1,534,414,3,16,Don't Control,Cheat,3,0,1,1,0,-13,13,1,1.3,1,-1.3,sj2ft9f66fsse8c1,52,1
27,28,rj5j60np,i7rlg7cc,603,578,11,10,Control,Don't Cheat,2,1,0,0,1,1,-1,0.076923077,0.1,-0.076923077,0.1,rj5j60npi7rlg7cc,52,1
1,2,265l99ai,2fsj9qvt,728,740,14,14,Don't Control,Don't Cheat,4,0,1,0,1,0,0,0,0,0,0,265l99ai2fsj9qvt,53,1
3,4,7xjh9hwo,e8jis7nf,579,532,11,10,Control,Don't Cheat,2,1,0,0,1,1,-1,0.076923077,0.1,-0.076923077,0.1,7xjh9hwoe8jis7nf,53,1
5,6,zo9j0hsi,iyu7t1vc,553,556,12,2,Control,Cheat,1,1,0,1,0,10,-10,0.769230769,1,-0.769230769,1,zo9j0hsiiyu7t1vc,53,1
7,8,3fmd8mik,qkypffhk,742,742,14,14,Don't Control,Don't Cheat,4,0,1,0,1,0,0,0,0,0,0,3fmd8mikqkypffhk,53,1
9,10,r3oyr52t,3u51j68w,590,756,14,14,Don't Control,Don't Cheat,4,0,1,0,1,0,0,0,0,0,0,r3oyr52t3u51j68w,53,1
11,12,xtfge1ys,i2nn9ow6,646,470,14,14,Don't Control,Don't Cheat,4,0,1,0,1,0,0,0,0,0,0,xtfge1ysi2nn9ow6,53,1
13,14,uwz2vbjr,b7ctrqau,586,534,11,10,Control,Don't Cheat,2,1,0,0,1,1,-1,0.076923077,0.1,-0.076923077,0.1,uwz2vbjrb7ctrqau,53,1
15,16,ipmny9rq,i18sqw1f,739,738,14,14,Don't Control,Don't Cheat,4,0,1,0,1,0,0,0,0,0,0,ipmny9rqi18sqw1f,53,1
17,18,ouaa8yuq,qxal8ioj,630,648,14,14,Don't Control,Don't Cheat,4,0,1,0,1,0,0,0,0,0,0,ouaa8yuqqxal8ioj,53,1
19,20,oy8wn5im,y9iygxxf,668,660,14,14,Don't Control,Don't Cheat,4,0,1,0,1,0,0,0,0,0,0,oy8wn5imy9iygxxf,53,1
21,22,9smjkz19,6ub1usmw,731,744,14,14,Don't Control,Don't Cheat,4,0,1,0,1,0,0,0,0,0,0,9smjkz196ub1usmw,53,1
23,24,0bmasffv,6zqxv643,649,618,14,14,Don't Control,Don't Cheat,4,0,1,0,1,0,0,0,0,0,0,0bmasffv6zqxv643,53,1
25,26,sj2ft9f6,6fsse8c1,546,416,12,2,Control,Cheat,1,1,0,1,0,10,-10,0.769230769,1,-0.769230769,1,sj2ft9f66fsse8c1,53,1
27,28,rj5j60np,i7rlg7cc,614,588,11,10,Control,Don't Cheat,2,1,0,0,1,1,-1,0.076923077,0.1,-0.076923077,0.1,rj5j60npi7rlg7cc,53,1
1,2,265l99ai,2fsj9qvt,742,754,14,14,Don't Control,Don't Cheat,4,0,1,0,1,0,0,0,0,0,0,265l99ai2fsj9qvt,54,1
3,4,7xjh9hwo,e8jis7nf,591,534,12,2,Control,Cheat,1,1,0,1,0,10,-10,0.769230769,1,-0.769230769,1,7xjh9hwoe8jis7nf,54,1
5,6,zo9j0hsi,iyu7t1vc,564,566,11,10,Control,Don't Cheat,2,1,0,0,1,1,-1,0.076923077,0.1,-0.076923077,0.1,zo9j0hsiiyu7t1vc,54,1
7,8,3fmd8mik,qkypffhk,756,756,14,14,Don't Control,Don't Cheat,4,0,1,0,1,0,0,0,0,0,0,3fmd8mikqkypffhk,54,1
9,10,r3oyr52t,3u51j68w,604,770,14,14,Don't Control,Don't Cheat,4,0,1,0,1,0,0,0,0,0,0,r3oyr52t3u51j68w,54,1
11,12,xtfge1ys,i2nn9ow6,657,480,11,10,Control,Don't Cheat,2,1,0,0,1,1,-1,0.076923077,0.1,-0.076923077,0.1,xtfge1ysi2nn9ow6,54,1
13,14,uwz2vbjr,b7ctrqau,597,544,11,10,Control,Don't Cheat,2,1,0,0,1,1,-1,0.076923077,0.1,-0.076923077,0.1,uwz2vbjrb7ctrqau,54,1
15,16,ipmny9rq,i18sqw1f,753,752,14,14,Don't Control,Don't Cheat,4,0,1,0,1,0,0,0,0,0,0,ipmny9rqi18sqw1f,54,1
17,18,ouaa8yuq,qxal8ioj,644,662,14,14,Don't Control,Don't Cheat,4,0,1,0,1,0,0,0,0,0,0,ouaa8yuqqxal8ioj,54,1
19,20,oy8wn5im,y9iygxxf,682,674,14,14,Don't Control,Don't Cheat,4,0,1,0,1,0,0,0,0,0,0,oy8wn5imy9iygxxf,54,1
21,22,9smjkz19,6ub1usmw,745,758,14,14,Don't Control,Don't Cheat,4,0,1,0,1,0,0,0,0,0,0,9smjkz196ub1usmw,54,1
23,24,0bmasffv,6zqxv643,663,632,14,14,Don't Control,Don't Cheat,4,0,1,0,1,0,0,0,0,0,0,0bmasffv6zqxv643,54,1
25,26,sj2ft9f6,6fsse8c1,558,418,12,2,Control,Cheat,1,1,0,1,0,10,-10,0.769230769,1,-0.769230769,1,sj2ft9f66fsse8c1,54,1
27,28,rj5j60np,i7rlg7cc,625,598,11,10,Control,Don't Cheat,2,1,0,0,1,1,-1,0.076923077,0.1,-0.076923077,0.1,rj5j60npi7rlg7cc,54,1
1,2,265l99ai,2fsj9qvt,756,768,14,14,Don't Control,Don't Cheat,4,0,1,0,1,0,0,0,0,0,0,265l99ai2fsj9qvt,55,1
3,4,7xjh9hwo,e8jis7nf,602,544,11,10,Control,Don't Cheat,2,1,0,0,1,1,-1,0.076923077,0.1,-0.076923077,0.1,7xjh9hwoe8jis7nf,55,1
5,6,zo9j0hsi,iyu7t1vc,576,568,12,2,Control,Cheat,1,1,0,1,0,10,-10,0.769230769,1,-0.769230769,1,zo9j0hsiiyu7t1vc,55,1
7,8,3fmd8mik,qkypffhk,770,770,14,14,Don't Control,Don't Cheat,4,0,1,0,1,0,0,0,0,0,0,3fmd8mikqkypffhk,55,1
9,10,r3oyr52t,3u51j68w,618,784,14,14,Don't Control,Don't Cheat,4,0,1,0,1,0,0,0,0,0,0,r3oyr52t3u51j68w,55,1
11,12,xtfge1ys,i2nn9ow6,671,494,14,14,Don't Control,Don't Cheat,4,0,1,0,1,0,0,0,0,0,0,xtfge1ysi2nn9ow6,55,1
13,14,uwz2vbjr,b7ctrqau,608,554,11,10,Control,Don't Cheat,2,1,0,0,1,1,-1,0.076923077,0.1,-0.076923077,0.1,uwz2vbjrb7ctrqau,55,1
15,16,ipmny9rq,i18sqw1f,767,766,14,14,Don't Control,Don't Cheat,4,0,1,0,1,0,0,0,0,0,0,ipmny9rqi18sqw1f,55,1
17,18,ouaa8yuq,qxal8ioj,647,678,3,16,Don't Control,Cheat,3,0,1,1,0,-13,13,1,1.3,1,-1.3,ouaa8yuqqxal8ioj,55,1
19,20,oy8wn5im,y9iygxxf,696,688,14,14,Don't Control,Don't Cheat,4,0,1,0,1,0,0,0,0,0,0,oy8wn5imy9iygxxf,55,1
21,22,9smjkz19,6ub1usmw,759,772,14,14,Don't Control,Don't Cheat,4,0,1,0,1,0,0,0,0,0,0,9smjkz196ub1usmw,55,1
23,24,0bmasffv,6zqxv643,677,646,14,14,Don't Control,Don't Cheat,4,0,1,0,1,0,0,0,0,0,0,0bmasffv6zqxv643,55,1
25,26,sj2ft9f6,6fsse8c1,569,428,11,10,Control,Don't Cheat,2,1,0,0,1,1,-1,0.076923077,0.1,-0.076923077,0.1,sj2ft9f66fsse8c1,55,1
27,28,rj5j60np,i7rlg7cc,636,608,11,10,Control,Don't Cheat,2,1,0,0,1,1,-1,0.076923077,0.1,-0.076923077,0.1,rj5j60npi7rlg7cc,55,1
1,2,265l99ai,2fsj9qvt,770,782,14,14,Don't Control,Don't Cheat,4,0,1,0,1,0,0,0,0,0,0,265l99ai2fsj9qvt,56,1
3,4,7xjh9hwo,e8jis7nf,613,554,11,10,Control,Don't Cheat,2,1,0,0,1,1,-1,0.076923077,0.1,-0.076923077,0.1,7xjh9hwoe8jis7nf,56,1
5,6,zo9j0hsi,iyu7t1vc,587,578,11,10,Control,Don't Cheat,2,1,0,0,1,1,-1,0.076923077,0.1,-0.076923077,0.1,zo9j0hsiiyu7t1vc,56,1
7,8,3fmd8mik,qkypffhk,784,784,14,14,Don't Control,Don't Cheat,4,0,1,0,1,0,0,0,0,0,0,3fmd8mikqkypffhk,56,1
9,10,r3oyr52t,3u51j68w,632,798,14,14,Don't Control,Don't Cheat,4,0,1,0,1,0,0,0,0,0,0,r3oyr52t3u51j68w,56,1
11,12,xtfge1ys,i2nn9ow6,685,508,14,14,Don't Control,Don't Cheat,4,0,1,0,1,0,0,0,0,0,0,xtfge1ysi2nn9ow6,56,1
13,14,uwz2vbjr,b7ctrqau,619,564,11,10,Control,Don't Cheat,2,1,0,0,1,1,-1,0.076923077,0.1,-0.076923077,0.1,uwz2vbjrb7ctrqau,56,1
15,16,ipmny9rq,i18sqw1f,781,780,14,14,Don't Control,Don't Cheat,4,0,1,0,1,0,0,0,0,0,0,ipmny9rqi18sqw1f,56,1
17,18,ouaa8yuq,qxal8ioj,650,694,3,16,Don't Control,Cheat,3,0,1,1,0,-13,13,1,1.3,1,-1.3,ouaa8yuqqxal8ioj,56,1
19,20,oy8wn5im,y9iygxxf,707,698,11,10,Control,Don't Cheat,2,1,0,0,1,1,-1,0.076923077,0.1,-0.076923077,0.1,oy8wn5imy9iygxxf,56,1
21,22,9smjkz19,6ub1usmw,773,786,14,14,Don't Control,Don't Cheat,4,0,1,0,1,0,0,0,0,0,0,9smjkz196ub1usmw,56,1
23,24,0bmasffv,6zqxv643,691,660,14,14,Don't Control,Don't Cheat,4,0,1,0,1,0,0,0,0,0,0,0bmasffv6zqxv643,56,1
25,26,sj2ft9f6,6fsse8c1,581,430,12,2,Control,Cheat,1,1,0,1,0,10,-10,0.769230769,1,-0.769230769,1,sj2ft9f66fsse8c1,56,1
27,28,rj5j60np,i7rlg7cc,647,618,11,10,Control,Don't Cheat,2,1,0,0,1,1,-1,0.076923077,0.1,-0.076923077,0.1,rj5j60npi7rlg7cc,56,1
1,2,265l99ai,2fsj9qvt,784,796,14,14,Don't Control,Don't Cheat,4,0,1,0,1,0,0,0,0,0,0,265l99ai2fsj9qvt,57,1
3,4,7xjh9hwo,e8jis7nf,624,564,11,10,Control,Don't Cheat,2,1,0,0,1,1,-1,0.076923077,0.1,-0.076923077,0.1,7xjh9hwoe8jis7nf,57,1
5,6,zo9j0hsi,iyu7t1vc,599,580,12,2,Control,Cheat,1,1,0,1,0,10,-10,0.769230769,1,-0.769230769,1,zo9j0hsiiyu7t1vc,57,1
7,8,3fmd8mik,qkypffhk,798,798,14,14,Don't Control,Don't Cheat,4,0,1,0,1,0,0,0,0,0,0,3fmd8mikqkypffhk,57,1
9,10,r3oyr52t,3u51j68w,646,812,14,14,Don't Control,Don't Cheat,4,0,1,0,1,0,0,0,0,0,0,r3oyr52t3u51j68w,57,1
11,12,xtfge1ys,i2nn9ow6,699,522,14,14,Don't Control,Don't Cheat,4,0,1,0,1,0,0,0,0,0,0,xtfge1ysi2nn9ow6,57,1
13,14,uwz2vbjr,b7ctrqau,630,574,11,10,Control,Don't Cheat,2,1,0,0,1,1,-1,0.076923077,0.1,-0.076923077,0.1,uwz2vbjrb7ctrqau,57,1
15,16,ipmny9rq,i18sqw1f,795,794,14,14,Don't Control,Don't Cheat,4,0,1,0,1,0,0,0,0,0,0,ipmny9rqi18sqw1f,57,1
17,18,ouaa8yuq,qxal8ioj,662,696,12,2,Control,Cheat,1,1,0,1,0,10,-10,0.769230769,1,-0.769230769,1,ouaa8yuqqxal8ioj,57,1
19,20,oy8wn5im,y9iygxxf,721,712,14,14,Don't Control,Don't Cheat,4,0,1,0,1,0,0,0,0,0,0,oy8wn5imy9iygxxf,57,1
21,22,9smjkz19,6ub1usmw,787,800,14,14,Don't Control,Don't Cheat,4,0,1,0,1,0,0,0,0,0,0,9smjkz196ub1usmw,57,1
23,24,0bmasffv,6zqxv643,705,674,14,14,Don't Control,Don't Cheat,4,0,1,0,1,0,0,0,0,0,0,0bmasffv6zqxv643,57,1
25,26,sj2ft9f6,6fsse8c1,593,432,12,2,Control,Cheat,1,1,0,1,0,10,-10,0.769230769,1,-0.769230769,1,sj2ft9f66fsse8c1,57,1
27,28,rj5j60np,i7rlg7cc,658,628,11,10,Control,Don't Cheat,2,1,0,0,1,1,-1,0.076923077,0.1,-0.076923077,0.1,rj5j60npi7rlg7cc,57,1
1,2,265l99ai,2fsj9qvt,798,810,14,14,Don't Control,Don't Cheat,4,0,1,0,1,0,0,0,0,0,0,265l99ai2fsj9qvt,58,1
3,4,7xjh9hwo,e8jis7nf,635,574,11,10,Control,Don't Cheat,2,1,0,0,1,1,-1,0.076923077,0.1,-0.076923077,0.1,7xjh9hwoe8jis7nf,58,1
5,6,zo9j0hsi,iyu7t1vc,611,582,12,2,Control,Cheat,1,1,0,1,0,10,-10,0.769230769,1,-0.769230769,1,zo9j0hsiiyu7t1vc,58,1
7,8,3fmd8mik,qkypffhk,812,812,14,14,Don't Control,Don't Cheat,4,0,1,0,1,0,0,0,0,0,0,3fmd8mikqkypffhk,58,1
9,10,r3oyr52t,3u51j68w,660,826,14,14,Don't Control,Don't Cheat,4,0,1,0,1,0,0,0,0,0,0,r3oyr52t3u51j68w,58,1
11,12,xtfge1ys,i2nn9ow6,713,536,14,14,Don't Control,Don't Cheat,4,0,1,0,1,0,0,0,0,0,0,xtfge1ysi2nn9ow6,58,1
13,14,uwz2vbjr,b7ctrqau,641,584,11,10,Control,Don't Cheat,2,1,0,0,1,1,-1,0.076923077,0.1,-0.076923077,0.1,uwz2vbjrb7ctrqau,58,1
15,16,ipmny9rq,i18sqw1f,809,808,14,14,Don't Control,Don't Cheat,4,0,1,0,1,0,0,0,0,0,0,ipmny9rqi18sqw1f,58,1
17,18,ouaa8yuq,qxal8ioj,674,698,12,2,Control,Cheat,1,1,0,1,0,10,-10,0.769230769,1,-0.769230769,1,ouaa8yuqqxal8ioj,58,1
19,20,oy8wn5im,y9iygxxf,735,726,14,14,Don't Control,Don't Cheat,4,0,1,0,1,0,0,0,0,0,0,oy8wn5imy9iygxxf,58,1
21,22,9smjkz19,6ub1usmw,801,814,14,14,Don't Control,Don't Cheat,4,0,1,0,1,0,0,0,0,0,0,9smjkz196ub1usmw,58,1
23,24,0bmasffv,6zqxv643,719,688,14,14,Don't Control,Don't Cheat,4,0,1,0,1,0,0,0,0,0,0,0bmasffv6zqxv643,58,1
25,26,sj2ft9f6,6fsse8c1,604,442,11,10,Control,Don't Cheat,2,1,0,0,1,1,-1,0.076923077,0.1,-0.076923077,0.1,sj2ft9f66fsse8c1,58,1
27,28,rj5j60np,i7rlg7cc,669,638,11,10,Control,Don't Cheat,2,1,0,0,1,1,-1,0.076923077,0.1,-0.076923077,0.1,rj5j60npi7rlg7cc,58,1
1,2,265l99ai,2fsj9qvt,812,824,14,14,Don't Control,Don't Cheat,4,0,1,0,1,0,0,0,0,0,0,265l99ai2fsj9qvt,59,1
3,4,7xjh9hwo,e8jis7nf,646,584,11,10,Control,Don't Cheat,2,1,0,0,1,1,-1,0.076923077,0.1,-0.076923077,0.1,7xjh9hwoe8jis7nf,59,1
5,6,zo9j0hsi,iyu7t1vc,622,592,11,10,Control,Don't Cheat,2,1,0,0,1,1,-1,0.076923077,0.1,-0.076923077,0.1,zo9j0hsiiyu7t1vc,59,1
7,8,3fmd8mik,qkypffhk,826,826,14,14,Don't Control,Don't Cheat,4,0,1,0,1,0,0,0,0,0,0,3fmd8mikqkypffhk,59,1
9,10,r3oyr52t,3u51j68w,674,840,14,14,Don't Control,Don't Cheat,4,0,1,0,1,0,0,0,0,0,0,r3oyr52t3u51j68w,59,1
11,12,xtfge1ys,i2nn9ow6,724,546,11,10,Control,Don't Cheat,2,1,0,0,1,1,-1,0.076923077,0.1,-0.076923077,0.1,xtfge1ysi2nn9ow6,59,1
13,14,uwz2vbjr,b7ctrqau,652,594,11,10,Control,Don't Cheat,2,1,0,0,1,1,-1,0.076923077,0.1,-0.076923077,0.1,uwz2vbjrb7ctrqau,59,1
15,16,ipmny9rq,i18sqw1f,823,822,14,14,Don't Control,Don't Cheat,4,0,1,0,1,0,0,0,0,0,0,ipmny9rqi18sqw1f,59,1
17,18,ouaa8yuq,qxal8ioj,686,700,12,2,Control,Cheat,1,1,0,1,0,10,-10,0.769230769,1,-0.769230769,1,ouaa8yuqqxal8ioj,59,1
19,20,oy8wn5im,y9iygxxf,749,740,14,14,Don't Control,Don't Cheat,4,0,1,0,1,0,0,0,0,0,0,oy8wn5imy9iygxxf,59,1
21,22,9smjkz19,6ub1usmw,815,828,14,14,Don't Control,Don't Cheat,4,0,1,0,1,0,0,0,0,0,0,9smjkz196ub1usmw,59,1
23,24,0bmasffv,6zqxv643,733,702,14,14,Don't Control,Don't Cheat,4,0,1,0,1,0,0,0,0,0,0,0bmasffv6zqxv643,59,1
25,26,sj2ft9f6,6fsse8c1,616,444,12,2,Control,Cheat,1,1,0,1,0,10,-10,0.769230769,1,-0.769230769,1,sj2ft9f66fsse8c1,59,1
27,28,rj5j60np,i7rlg7cc,680,648,11,10,Control,Don't Cheat,2,1,0,0,1,1,-1,0.076923077,0.1,-0.076923077,0.1,rj5j60npi7rlg7cc,59,1
1,2,265l99ai,2fsj9qvt,826,838,14,14,Don't Control,Don't Cheat,4,0,1,0,1,0,0,0,0,0,0,265l99ai2fsj9qvt,60,1
3,4,7xjh9hwo,e8jis7nf,657,594,11,10,Control,Don't Cheat,2,1,0,0,1,1,-1,0.076923077,0.1,-0.076923077,0.1,7xjh9hwoe8jis7nf,60,1
5,6,zo9j0hsi,iyu7t1vc,633,602,11,10,Control,Don't Cheat,2,1,0,0,1,1,-1,0.076923077,0.1,-0.076923077,0.1,zo9j0hsiiyu7t1vc,60,1
7,8,3fmd8mik,qkypffhk,840,840,14,14,Don't Control,Don't Cheat,4,0,1,0,1,0,0,0,0,0,0,3fmd8mikqkypffhk,60,1
9,10,r3oyr52t,3u51j68w,688,854,14,14,Don't Control,Don't Cheat,4,0,1,0,1,0,0,0,0,0,0,r3oyr52t3u51j68w,60,1
11,12,xtfge1ys,i2nn9ow6,727,562,3,16,Don't Control,Cheat,3,0,1,1,0,-13,13,1,1.3,1,-1.3,xtfge1ysi2nn9ow6,60,1
13,14,uwz2vbjr,b7ctrqau,663,604,11,10,Control,Don't Cheat,2,1,0,0,1,1,-1,0.076923077,0.1,-0.076923077,0.1,uwz2vbjrb7ctrqau,60,1
15,16,ipmny9rq,i18sqw1f,837,836,14,14,Don't Control,Don't Cheat,4,0,1,0,1,0,0,0,0,0,0,ipmny9rqi18sqw1f,60,1
17,18,ouaa8yuq,qxal8ioj,697,710,11,10,Control,Don't Cheat,2,1,0,0,1,1,-1,0.076923077,0.1,-0.076923077,0.1,ouaa8yuqqxal8ioj,60,1
19,20,oy8wn5im,y9iygxxf,760,750,11,10,Control,Don't Cheat,2,1,0,0,1,1,-1,0.076923077,0.1,-0.076923077,0.1,oy8wn5imy9iygxxf,60,1
21,22,9smjkz19,6ub1usmw,829,842,14,14,Don't Control,Don't Cheat,4,0,1,0,1,0,0,0,0,0,0,9smjkz196ub1usmw,60,1
23,24,0bmasffv,6zqxv643,747,716,14,14,Don't Control,Don't Cheat,4,0,1,0,1,0,0,0,0,0,0,0bmasffv6zqxv643,60,1
25,26,sj2ft9f6,6fsse8c1,628,446,12,2,Control,Cheat,1,1,0,1,0,10,-10,0.769230769,1,-0.769230769,1,sj2ft9f66fsse8c1,60,1
27,28,rj5j60np,i7rlg7cc,691,658,11,10,Control,Don't Cheat,2,1,0,0,1,1,-1,0.076923077,0.1,-0.076923077,0.1,rj5j60npi7rlg7cc,60,1
1,2,265l99ai,2fsj9qvt,840,852,14,14,Don't Control,Don't Cheat,4,0,1,0,1,0,0,0,0,0,0,265l99ai2fsj9qvt,61,1
3,4,7xjh9hwo,e8jis7nf,668,604,11,10,Control,Don't Cheat,2,1,0,0,1,1,-1,0.076923077,0.1,-0.076923077,0.1,7xjh9hwoe8jis7nf,61,1
5,6,zo9j0hsi,iyu7t1vc,644,612,11,10,Control,Don't Cheat,2,1,0,0,1,1,-1,0.076923077,0.1,-0.076923077,0.1,zo9j0hsiiyu7t1vc,61,1
7,8,3fmd8mik,qkypffhk,854,854,14,14,Don't Control,Don't Cheat,4,0,1,0,1,0,0,0,0,0,0,3fmd8mikqkypffhk,61,1
9,10,r3oyr52t,3u51j68w,702,868,14,14,Don't Control,Don't Cheat,4,0,1,0,1,0,0,0,0,0,0,r3oyr52t3u51j68w,61,1
11,12,xtfge1ys,i2nn9ow6,739,564,12,2,Control,Cheat,1,1,0,1,0,10,-10,0.769230769,1,-0.769230769,1,xtfge1ysi2nn9ow6,61,1
13,14,uwz2vbjr,b7ctrqau,674,614,11,10,Control,Don't Cheat,2,1,0,0,1,1,-1,0.076923077,0.1,-0.076923077,0.1,uwz2vbjrb7ctrqau,61,1
15,16,ipmny9rq,i18sqw1f,851,850,14,14,Don't Control,Don't Cheat,4,0,1,0,1,0,0,0,0,0,0,ipmny9rqi18sqw1f,61,1
17,18,ouaa8yuq,qxal8ioj,708,720,11,10,Control,Don't Cheat,2,1,0,0,1,1,-1,0.076923077,0.1,-0.076923077,0.1,ouaa8yuqqxal8ioj,61,1
19,20,oy8wn5im,y9iygxxf,774,764,14,14,Don't Control,Don't Cheat,4,0,1,0,1,0,0,0,0,0,0,oy8wn5imy9iygxxf,61,1
21,22,9smjkz19,6ub1usmw,843,856,14,14,Don't Control,Don't Cheat,4,0,1,0,1,0,0,0,0,0,0,9smjkz196ub1usmw,61,1
23,24,0bmasffv,6zqxv643,761,730,14,14,Don't Control,Don't Cheat,4,0,1,0,1,0,0,0,0,0,0,0bmasffv6zqxv643,61,1
25,26,sj2ft9f6,6fsse8c1,631,462,3,16,Don't Control,Cheat,3,0,1,1,0,-13,13,1,1.3,1,-1.3,sj2ft9f66fsse8c1,61,1
27,28,rj5j60np,i7rlg7cc,702,668,11,10,Control,Don't Cheat,2,1,0,0,1,1,-1,0.076923077,0.1,-0.076923077,0.1,rj5j60npi7rlg7cc,61,1
1,2,265l99ai,2fsj9qvt,854,866,14,14,Don't Control,Don't Cheat,4,0,1,0,1,0,0,0,0,0,0,265l99ai2fsj9qvt,62,1
3,4,7xjh9hwo,e8jis7nf,679,614,11,10,Control,Don't Cheat,2,1,0,0,1,1,-1,0.076923077,0.1,-0.076923077,0.1,7xjh9hwoe8jis7nf,62,1
5,6,zo9j0hsi,iyu7t1vc,655,622,11,10,Control,Don't Cheat,2,1,0,0,1,1,-1,0.076923077,0.1,-0.076923077,0.1,zo9j0hsiiyu7t1vc,62,1
7,8,3fmd8mik,qkypffhk,868,868,14,14,Don't Control,Don't Cheat,4,0,1,0,1,0,0,0,0,0,0,3fmd8mikqkypffhk,62,1
9,10,r3oyr52t,3u51j68w,716,882,14,14,Don't Control,Don't Cheat,4,0,1,0,1,0,0,0,0,0,0,r3oyr52t3u51j68w,62,1
11,12,xtfge1ys,i2nn9ow6,750,574,11,10,Control,Don't Cheat,2,1,0,0,1,1,-1,0.076923077,0.1,-0.076923077,0.1,xtfge1ysi2nn9ow6,62,1
13,14,uwz2vbjr,b7ctrqau,685,624,11,10,Control,Don't Cheat,2,1,0,0,1,1,-1,0.076923077,0.1,-0.076923077,0.1,uwz2vbjrb7ctrqau,62,1
15,16,ipmny9rq,i18sqw1f,865,864,14,14,Don't Control,Don't Cheat,4,0,1,0,1,0,0,0,0,0,0,ipmny9rqi18sqw1f,62,1
17,18,ouaa8yuq,qxal8ioj,722,734,14,14,Don't Control,Don't Cheat,4,0,1,0,1,0,0,0,0,0,0,ouaa8yuqqxal8ioj,62,1
19,20,oy8wn5im,y9iygxxf,788,778,14,14,Don't Control,Don't Cheat,4,0,1,0,1,0,0,0,0,0,0,oy8wn5imy9iygxxf,62,1
21,22,9smjkz19,6ub1usmw,857,870,14,14,Don't Control,Don't Cheat,4,0,1,0,1,0,0,0,0,0,0,9smjkz196ub1usmw,62,1
23,24,0bmasffv,6zqxv643,775,744,14,14,Don't Control,Don't Cheat,4,0,1,0,1,0,0,0,0,0,0,0bmasffv6zqxv643,62,1
25,26,sj2ft9f6,6fsse8c1,642,472,11,10,Control,Don't Cheat,2,1,0,0,1,1,-1,0.076923077,0.1,-0.076923077,0.1,sj2ft9f66fsse8c1,62,1
