participant_id_in_session,participant_code,participant_time_started,player_id,player_total_payoff,player_tax_office_decision,player_company_decision,p1s1,p2s1,s1,s2,group_id_in_subsession,round_number,session_code,framed,dataset,game_id,p1s1_cumulative,p2s1_cumulative,gender,p1_payoff,p2_payoff,degree_str,degree,Age,age_str,nationality,s1_cumulative,s1_freq,Framing,treatment
1,265l99ai,2021-03-15 10:12:08.650239+00:00,1,14,Don't Control,,0,0,0,1,1,1,7igvdhlu,1,15,151,0,0,2,14,0,International Taxation and Law,23,2,18-24,Germany,0,0,1,framed
2,2fsj9qvt,2021-03-15 10:12:09.038959+00:00,2,14,,Don't Cheat,0,0,0,1,1,1,7igvdhlu,1,15,151,0,0,1,0,14,"Agribusiness, B.A.",1,2,18-24,Viet Nam,0,0,1,framed
1,265l99ai,2021-03-15 10:12:08.650239+00:00,1,28,Don't Control,,0,0,0,1,1,2,7igvdhlu,1,15,151,0,0,2,14,0,International Taxation and Law,23,2,18-24,Germany,0,0,1,framed
2,2fsj9qvt,2021-03-15 10:12:09.038959+00:00,2,28,,Don't Cheat,0,0,0,1,1,2,7igvdhlu,1,15,151,0,0,1,0,14,"Agribusiness, B.A.",1,2,18-24,Viet Nam,0,0,1,framed
1,265l99ai,2021-03-15 10:12:08.650239+00:00,1,42,Don't Control,,0,0,0,1,1,3,7igvdhlu,1,15,151,0,0,2,14,0,International Taxation and Law,23,2,18-24,Germany,0,0,1,framed
2,2fsj9qvt,2021-03-15 10:12:09.038959+00:00,2,42,,Don't Cheat,0,0,0,1,1,3,7igvdhlu,1,15,151,0,0,1,0,14,"Agribusiness, B.A.",1,2,18-24,Viet Nam,0,0,1,framed
1,265l99ai,2021-03-15 10:12:08.650239+00:00,1,56,Don't Control,,0,0,0,1,1,4,7igvdhlu,1,15,151,0,0,2,14,0,International Taxation and Law,23,2,18-24,Germany,0,0,1,framed
2,2fsj9qvt,2021-03-15 10:12:09.038959+00:00,2,56,,Don't Cheat,0,0,0,1,1,4,7igvdhlu,1,15,151,0,0,1,0,14,"Agribusiness, B.A.",1,2,18-24,Viet Nam,0,0,1,framed
1,265l99ai,2021-03-15 10:12:08.650239+00:00,1,70,Don't Control,,0,0,0,1,1,5,7igvdhlu,1,15,151,0,0,2,14,0,International Taxation and Law,23,2,18-24,Germany,0,0,1,framed
2,2fsj9qvt,2021-03-15 10:12:09.038959+00:00,2,70,,Don't Cheat,0,0,0,1,1,5,7igvdhlu,1,15,151,0,0,1,0,14,"Agribusiness, B.A.",1,2,18-24,Viet Nam,0,0,1,framed
1,265l99ai,2021-03-15 10:12:08.650239+00:00,1,73,Don't Control,,0,0,0,1,1,6,7igvdhlu,1,15,151,0,0,2,14,0,International Taxation and Law,23,2,18-24,Germany,0,0,1,framed
2,2fsj9qvt,2021-03-15 10:12:09.038959+00:00,2,86,,Cheat,0,1,1,0,1,6,7igvdhlu,1,15,151,0,1,1,0,16,"Agribusiness, B.A.",1,2,18-24,Viet Nam,1,0.166666667,1,framed
1,265l99ai,2021-03-15 10:12:08.650239+00:00,1,84,Control,,1,0,1,0,1,7,7igvdhlu,1,15,151,1,0,2,11,0,International Taxation and Law,23,2,18-24,Germany,1,0.142857143,1,framed
2,2fsj9qvt,2021-03-15 10:12:09.038959+00:00,2,96,,Don't Cheat,0,0,0,1,1,7,7igvdhlu,1,15,151,0,1,1,0,14,"Agribusiness, B.A.",1,2,18-24,Viet Nam,1,0.142857143,1,framed
1,265l99ai,2021-03-15 10:12:08.650239+00:00,1,98,Don't Control,,0,0,0,1,1,8,7igvdhlu,1,15,151,1,0,2,14,0,International Taxation and Law,23,2,18-24,Germany,1,0.125,1,framed
2,2fsj9qvt,2021-03-15 10:12:09.038959+00:00,2,110,,Don't Cheat,0,0,0,1,1,8,7igvdhlu,1,15,151,0,1,1,0,14,"Agribusiness, B.A.",1,2,18-24,Viet Nam,1,0.125,1,framed
1,265l99ai,2021-03-15 10:12:08.650239+00:00,1,112,Don't Control,,0,0,0,1,1,9,7igvdhlu,1,15,151,1,0,2,14,0,International Taxation and Law,23,2,18-24,Germany,1,0.111111111,1,framed
2,2fsj9qvt,2021-03-15 10:12:09.038959+00:00,2,124,,Don't Cheat,0,0,0,1,1,9,7igvdhlu,1,15,151,0,1,1,0,14,"Agribusiness, B.A.",1,2,18-24,Viet Nam,1,0.111111111,1,framed
1,265l99ai,2021-03-15 10:12:08.650239+00:00,1,126,Don't Control,,0,0,0,1,1,10,7igvdhlu,1,15,151,1,0,2,14,0,International Taxation and Law,23,2,18-24,Germany,1,0.1,1,framed
2,2fsj9qvt,2021-03-15 10:12:09.038959+00:00,2,138,,Don't Cheat,0,0,0,1,1,10,7igvdhlu,1,15,151,0,1,1,0,14,"Agribusiness, B.A.",1,2,18-24,Viet Nam,1,0.1,1,framed
1,265l99ai,2021-03-15 10:12:08.650239+00:00,1,140,Don't Control,,0,0,0,1,1,11,7igvdhlu,1,15,151,1,0,2,14,0,International Taxation and Law,23,2,18-24,Germany,1,0.090909091,1,framed
2,2fsj9qvt,2021-03-15 10:12:09.038959+00:00,2,152,,Don't Cheat,0,0,0,1,1,11,7igvdhlu,1,15,151,0,1,1,0,14,"Agribusiness, B.A.",1,2,18-24,Viet Nam,1,0.090909091,1,framed
1,265l99ai,2021-03-15 10:12:08.650239+00:00,1,154,Don't Control,,0,0,0,1,1,12,7igvdhlu,1,15,151,1,0,2,14,0,International Taxation and Law,23,2,18-24,Germany,1,0.083333333,1,framed
2,2fsj9qvt,2021-03-15 10:12:09.038959+00:00,2,166,,Don't Cheat,0,0,0,1,1,12,7igvdhlu,1,15,151,0,1,1,0,14,"Agribusiness, B.A.",1,2,18-24,Viet Nam,1,0.083333333,1,framed
1,265l99ai,2021-03-15 10:12:08.650239+00:00,1,168,Don't Control,,0,0,0,1,1,13,7igvdhlu,1,15,151,1,0,2,14,0,International Taxation and Law,23,2,18-24,Germany,1,0.076923077,1,framed
2,2fsj9qvt,2021-03-15 10:12:09.038959+00:00,2,180,,Don't Cheat,0,0,0,1,1,13,7igvdhlu,1,15,151,0,1,1,0,14,"Agribusiness, B.A.",1,2,18-24,Viet Nam,1,0.076923077,1,framed
1,265l99ai,2021-03-15 10:12:08.650239+00:00,1,182,Don't Control,,0,0,0,1,1,14,7igvdhlu,1,15,151,1,0,2,14,0,International Taxation and Law,23,2,18-24,Germany,1,0.071428571,1,framed
2,2fsj9qvt,2021-03-15 10:12:09.038959+00:00,2,194,,Don't Cheat,0,0,0,1,1,14,7igvdhlu,1,15,151,0,1,1,0,14,"Agribusiness, B.A.",1,2,18-24,Viet Nam,1,0.071428571,1,framed
1,265l99ai,2021-03-15 10:12:08.650239+00:00,1,196,Don't Control,,0,0,0,1,1,15,7igvdhlu,1,15,151,1,0,2,14,0,International Taxation and Law,23,2,18-24,Germany,1,0.066666667,1,framed
2,2fsj9qvt,2021-03-15 10:12:09.038959+00:00,2,208,,Don't Cheat,0,0,0,1,1,15,7igvdhlu,1,15,151,0,1,1,0,14,"Agribusiness, B.A.",1,2,18-24,Viet Nam,1,0.066666667,1,framed
1,265l99ai,2021-03-15 10:12:08.650239+00:00,1,210,Don't Control,,0,0,0,1,1,16,7igvdhlu,1,15,151,1,0,2,14,0,International Taxation and Law,23,2,18-24,Germany,1,0.0625,1,framed
2,2fsj9qvt,2021-03-15 10:12:09.038959+00:00,2,222,,Don't Cheat,0,0,0,1,1,16,7igvdhlu,1,15,151,0,1,1,0,14,"Agribusiness, B.A.",1,2,18-24,Viet Nam,1,0.0625,1,framed
1,265l99ai,2021-03-15 10:12:08.650239+00:00,1,224,Don't Control,,0,0,0,1,1,17,7igvdhlu,1,15,151,1,0,2,14,0,International Taxation and Law,23,2,18-24,Germany,1,0.058823529,1,framed
2,2fsj9qvt,2021-03-15 10:12:09.038959+00:00,2,236,,Don't Cheat,0,0,0,1,1,17,7igvdhlu,1,15,151,0,1,1,0,14,"Agribusiness, B.A.",1,2,18-24,Viet Nam,1,0.058823529,1,framed
1,265l99ai,2021-03-15 10:12:08.650239+00:00,1,238,Don't Control,,0,0,0,1,1,18,7igvdhlu,1,15,151,1,0,2,14,0,International Taxation and Law,23,2,18-24,Germany,1,0.055555556,1,framed
2,2fsj9qvt,2021-03-15 10:12:09.038959+00:00,2,250,,Don't Cheat,0,0,0,1,1,18,7igvdhlu,1,15,151,0,1,1,0,14,"Agribusiness, B.A.",1,2,18-24,Viet Nam,1,0.055555556,1,framed
1,265l99ai,2021-03-15 10:12:08.650239+00:00,1,252,Don't Control,,0,0,0,1,1,19,7igvdhlu,1,15,151,1,0,2,14,0,International Taxation and Law,23,2,18-24,Germany,1,0.052631579,1,framed
2,2fsj9qvt,2021-03-15 10:12:09.038959+00:00,2,264,,Don't Cheat,0,0,0,1,1,19,7igvdhlu,1,15,151,0,1,1,0,14,"Agribusiness, B.A.",1,2,18-24,Viet Nam,1,0.052631579,1,framed
1,265l99ai,2021-03-15 10:12:08.650239+00:00,1,266,Don't Control,,0,0,0,1,1,20,7igvdhlu,1,15,151,1,0,2,14,0,International Taxation and Law,23,2,18-24,Germany,1,0.05,1,framed
2,2fsj9qvt,2021-03-15 10:12:09.038959+00:00,2,278,,Don't Cheat,0,0,0,1,1,20,7igvdhlu,1,15,151,0,1,1,0,14,"Agribusiness, B.A.",1,2,18-24,Viet Nam,1,0.05,1,framed
1,265l99ai,2021-03-15 10:12:08.650239+00:00,1,280,Don't Control,,0,0,0,1,1,21,7igvdhlu,1,15,151,1,0,2,14,0,International Taxation and Law,23,2,18-24,Germany,1,0.047619048,1,framed
2,2fsj9qvt,2021-03-15 10:12:09.038959+00:00,2,292,,Don't Cheat,0,0,0,1,1,21,7igvdhlu,1,15,151,0,1,1,0,14,"Agribusiness, B.A.",1,2,18-24,Viet Nam,1,0.047619048,1,framed
1,265l99ai,2021-03-15 10:12:08.650239+00:00,1,294,Don't Control,,0,0,0,1,1,22,7igvdhlu,1,15,151,1,0,2,14,0,International Taxation and Law,23,2,18-24,Germany,1,0.045454545,1,framed
2,2fsj9qvt,2021-03-15 10:12:09.038959+00:00,2,306,,Don't Cheat,0,0,0,1,1,22,7igvdhlu,1,15,151,0,1,1,0,14,"Agribusiness, B.A.",1,2,18-24,Viet Nam,1,0.045454545,1,framed
1,265l99ai,2021-03-15 10:12:08.650239+00:00,1,308,Don't Control,,0,0,0,1,1,23,7igvdhlu,1,15,151,1,0,2,14,0,International Taxation and Law,23,2,18-24,Germany,1,0.043478261,1,framed
2,2fsj9qvt,2021-03-15 10:12:09.038959+00:00,2,320,,Don't Cheat,0,0,0,1,1,23,7igvdhlu,1,15,151,0,1,1,0,14,"Agribusiness, B.A.",1,2,18-24,Viet Nam,1,0.043478261,1,framed
1,265l99ai,2021-03-15 10:12:08.650239+00:00,1,322,Don't Control,,0,0,0,1,1,24,7igvdhlu,1,15,151,1,0,2,14,0,International Taxation and Law,23,2,18-24,Germany,1,0.041666667,1,framed
2,2fsj9qvt,2021-03-15 10:12:09.038959+00:00,2,334,,Don't Cheat,0,0,0,1,1,24,7igvdhlu,1,15,151,0,1,1,0,14,"Agribusiness, B.A.",1,2,18-24,Viet Nam,1,0.041666667,1,framed
1,265l99ai,2021-03-15 10:12:08.650239+00:00,1,336,Don't Control,,0,0,0,1,1,25,7igvdhlu,1,15,151,1,0,2,14,0,International Taxation and Law,23,2,18-24,Germany,1,0.04,1,framed
2,2fsj9qvt,2021-03-15 10:12:09.038959+00:00,2,348,,Don't Cheat,0,0,0,1,1,25,7igvdhlu,1,15,151,0,1,1,0,14,"Agribusiness, B.A.",1,2,18-24,Viet Nam,1,0.04,1,framed
1,265l99ai,2021-03-15 10:12:08.650239+00:00,1,350,Don't Control,,0,0,0,1,1,26,7igvdhlu,1,15,151,1,0,2,14,0,International Taxation and Law,23,2,18-24,Germany,1,0.038461538,1,framed
2,2fsj9qvt,2021-03-15 10:12:09.038959+00:00,2,362,,Don't Cheat,0,0,0,1,1,26,7igvdhlu,1,15,151,0,1,1,0,14,"Agribusiness, B.A.",1,2,18-24,Viet Nam,1,0.038461538,1,framed
1,265l99ai,2021-03-15 10:12:08.650239+00:00,1,364,Don't Control,,0,0,0,1,1,27,7igvdhlu,1,15,151,1,0,2,14,0,International Taxation and Law,23,2,18-24,Germany,1,0.037037037,1,framed
2,2fsj9qvt,2021-03-15 10:12:09.038959+00:00,2,376,,Don't Cheat,0,0,0,1,1,27,7igvdhlu,1,15,151,0,1,1,0,14,"Agribusiness, B.A.",1,2,18-24,Viet Nam,1,0.037037037,1,framed
1,265l99ai,2021-03-15 10:12:08.650239+00:00,1,378,Don't Control,,0,0,0,1,1,28,7igvdhlu,1,15,151,1,0,2,14,0,International Taxation and Law,23,2,18-24,Germany,1,0.035714286,1,framed
2,2fsj9qvt,2021-03-15 10:12:09.038959+00:00,2,390,,Don't Cheat,0,0,0,1,1,28,7igvdhlu,1,15,151,0,1,1,0,14,"Agribusiness, B.A.",1,2,18-24,Viet Nam,1,0.035714286,1,framed
1,265l99ai,2021-03-15 10:12:08.650239+00:00,1,392,Don't Control,,0,0,0,1,1,29,7igvdhlu,1,15,151,1,0,2,14,0,International Taxation and Law,23,2,18-24,Germany,1,0.034482759,1,framed
2,2fsj9qvt,2021-03-15 10:12:09.038959+00:00,2,404,,Don't Cheat,0,0,0,1,1,29,7igvdhlu,1,15,151,0,1,1,0,14,"Agribusiness, B.A.",1,2,18-24,Viet Nam,1,0.034482759,1,framed
1,265l99ai,2021-03-15 10:12:08.650239+00:00,1,406,Don't Control,,0,0,0,1,1,30,7igvdhlu,1,15,151,1,0,2,14,0,International Taxation and Law,23,2,18-24,Germany,1,0.033333333,1,framed
2,2fsj9qvt,2021-03-15 10:12:09.038959+00:00,2,418,,Don't Cheat,0,0,0,1,1,30,7igvdhlu,1,15,151,0,1,1,0,14,"Agribusiness, B.A.",1,2,18-24,Viet Nam,1,0.033333333,1,framed
1,265l99ai,2021-03-15 10:12:08.650239+00:00,1,420,Don't Control,,0,0,0,1,1,31,7igvdhlu,1,15,151,1,0,2,14,0,International Taxation and Law,23,2,18-24,Germany,1,0.032258065,1,framed
2,2fsj9qvt,2021-03-15 10:12:09.038959+00:00,2,432,,Don't Cheat,0,0,0,1,1,31,7igvdhlu,1,15,151,0,1,1,0,14,"Agribusiness, B.A.",1,2,18-24,Viet Nam,1,0.032258065,1,framed
1,265l99ai,2021-03-15 10:12:08.650239+00:00,1,434,Don't Control,,0,0,0,1,1,32,7igvdhlu,1,15,151,1,0,2,14,0,International Taxation and Law,23,2,18-24,Germany,1,0.03125,1,framed
2,2fsj9qvt,2021-03-15 10:12:09.038959+00:00,2,446,,Don't Cheat,0,0,0,1,1,32,7igvdhlu,1,15,151,0,1,1,0,14,"Agribusiness, B.A.",1,2,18-24,Viet Nam,1,0.03125,1,framed
1,265l99ai,2021-03-15 10:12:08.650239+00:00,1,448,Don't Control,,0,0,0,1,1,33,7igvdhlu,1,15,151,1,0,2,14,0,International Taxation and Law,23,2,18-24,Germany,1,0.03030303,1,framed
2,2fsj9qvt,2021-03-15 10:12:09.038959+00:00,2,460,,Don't Cheat,0,0,0,1,1,33,7igvdhlu,1,15,151,0,1,1,0,14,"Agribusiness, B.A.",1,2,18-24,Viet Nam,1,0.03030303,1,framed
1,265l99ai,2021-03-15 10:12:08.650239+00:00,1,462,Don't Control,,0,0,0,1,1,34,7igvdhlu,1,15,151,1,0,2,14,0,International Taxation and Law,23,2,18-24,Germany,1,0.029411765,1,framed
2,2fsj9qvt,2021-03-15 10:12:09.038959+00:00,2,474,,Don't Cheat,0,0,0,1,1,34,7igvdhlu,1,15,151,0,1,1,0,14,"Agribusiness, B.A.",1,2,18-24,Viet Nam,1,0.029411765,1,framed
1,265l99ai,2021-03-15 10:12:08.650239+00:00,1,476,Don't Control,,0,0,0,1,1,35,7igvdhlu,1,15,151,1,0,2,14,0,International Taxation and Law,23,2,18-24,Germany,1,0.028571429,1,framed
2,2fsj9qvt,2021-03-15 10:12:09.038959+00:00,2,488,,Don't Cheat,0,0,0,1,1,35,7igvdhlu,1,15,151,0,1,1,0,14,"Agribusiness, B.A.",1,2,18-24,Viet Nam,1,0.028571429,1,framed
1,265l99ai,2021-03-15 10:12:08.650239+00:00,1,490,Don't Control,,0,0,0,1,1,36,7igvdhlu,1,15,151,1,0,2,14,0,International Taxation and Law,23,2,18-24,Germany,1,0.027777778,1,framed
2,2fsj9qvt,2021-03-15 10:12:09.038959+00:00,2,502,,Don't Cheat,0,0,0,1,1,36,7igvdhlu,1,15,151,0,1,1,0,14,"Agribusiness, B.A.",1,2,18-24,Viet Nam,1,0.027777778,1,framed
1,265l99ai,2021-03-15 10:12:08.650239+00:00,1,504,Don't Control,,0,0,0,1,1,37,7igvdhlu,1,15,151,1,0,2,14,0,International Taxation and Law,23,2,18-24,Germany,1,0.027027027,1,framed
2,2fsj9qvt,2021-03-15 10:12:09.038959+00:00,2,516,,Don't Cheat,0,0,0,1,1,37,7igvdhlu,1,15,151,0,1,1,0,14,"Agribusiness, B.A.",1,2,18-24,Viet Nam,1,0.027027027,1,framed
1,265l99ai,2021-03-15 10:12:08.650239+00:00,1,518,Don't Control,,0,0,0,1,1,38,7igvdhlu,1,15,151,1,0,2,14,0,International Taxation and Law,23,2,18-24,Germany,1,0.026315789,1,framed
2,2fsj9qvt,2021-03-15 10:12:09.038959+00:00,2,530,,Don't Cheat,0,0,0,1,1,38,7igvdhlu,1,15,151,0,1,1,0,14,"Agribusiness, B.A.",1,2,18-24,Viet Nam,1,0.026315789,1,framed
1,265l99ai,2021-03-15 10:12:08.650239+00:00,1,532,Don't Control,,0,0,0,1,1,39,7igvdhlu,1,15,151,1,0,2,14,0,International Taxation and Law,23,2,18-24,Germany,1,0.025641026,1,framed
2,2fsj9qvt,2021-03-15 10:12:09.038959+00:00,2,544,,Don't Cheat,0,0,0,1,1,39,7igvdhlu,1,15,151,0,1,1,0,14,"Agribusiness, B.A.",1,2,18-24,Viet Nam,1,0.025641026,1,framed
1,265l99ai,2021-03-15 10:12:08.650239+00:00,1,546,Don't Control,,0,0,0,1,1,40,7igvdhlu,1,15,151,1,0,2,14,0,International Taxation and Law,23,2,18-24,Germany,1,0.025,1,framed
2,2fsj9qvt,2021-03-15 10:12:09.038959+00:00,2,558,,Don't Cheat,0,0,0,1,1,40,7igvdhlu,1,15,151,0,1,1,0,14,"Agribusiness, B.A.",1,2,18-24,Viet Nam,1,0.025,1,framed
1,265l99ai,2021-03-15 10:12:08.650239+00:00,1,560,Don't Control,,0,0,0,1,1,41,7igvdhlu,1,15,151,1,0,2,14,0,International Taxation and Law,23,2,18-24,Germany,1,0.024390244,1,framed
2,2fsj9qvt,2021-03-15 10:12:09.038959+00:00,2,572,,Don't Cheat,0,0,0,1,1,41,7igvdhlu,1,15,151,0,1,1,0,14,"Agribusiness, B.A.",1,2,18-24,Viet Nam,1,0.024390244,1,framed
1,265l99ai,2021-03-15 10:12:08.650239+00:00,1,574,Don't Control,,0,0,0,1,1,42,7igvdhlu,1,15,151,1,0,2,14,0,International Taxation and Law,23,2,18-24,Germany,1,0.023809524,1,framed
2,2fsj9qvt,2021-03-15 10:12:09.038959+00:00,2,586,,Don't Cheat,0,0,0,1,1,42,7igvdhlu,1,15,151,0,1,1,0,14,"Agribusiness, B.A.",1,2,18-24,Viet Nam,1,0.023809524,1,framed
1,265l99ai,2021-03-15 10:12:08.650239+00:00,1,588,Don't Control,,0,0,0,1,1,43,7igvdhlu,1,15,151,1,0,2,14,0,International Taxation and Law,23,2,18-24,Germany,1,0.023255814,1,framed
2,2fsj9qvt,2021-03-15 10:12:09.038959+00:00,2,600,,Don't Cheat,0,0,0,1,1,43,7igvdhlu,1,15,151,0,1,1,0,14,"Agribusiness, B.A.",1,2,18-24,Viet Nam,1,0.023255814,1,framed
1,265l99ai,2021-03-15 10:12:08.650239+00:00,1,602,Don't Control,,0,0,0,1,1,44,7igvdhlu,1,15,151,1,0,2,14,0,International Taxation and Law,23,2,18-24,Germany,1,0.022727273,1,framed
2,2fsj9qvt,2021-03-15 10:12:09.038959+00:00,2,614,,Don't Cheat,0,0,0,1,1,44,7igvdhlu,1,15,151,0,1,1,0,14,"Agribusiness, B.A.",1,2,18-24,Viet Nam,1,0.022727273,1,framed
1,265l99ai,2021-03-15 10:12:08.650239+00:00,1,616,Don't Control,,0,0,0,1,1,45,7igvdhlu,1,15,151,1,0,2,14,0,International Taxation and Law,23,2,18-24,Germany,1,0.022222222,1,framed
2,2fsj9qvt,2021-03-15 10:12:09.038959+00:00,2,628,,Don't Cheat,0,0,0,1,1,45,7igvdhlu,1,15,151,0,1,1,0,14,"Agribusiness, B.A.",1,2,18-24,Viet Nam,1,0.022222222,1,framed
1,265l99ai,2021-03-15 10:12:08.650239+00:00,1,630,Don't Control,,0,0,0,1,1,46,7igvdhlu,1,15,151,1,0,2,14,0,International Taxation and Law,23,2,18-24,Germany,1,0.02173913,1,framed
2,2fsj9qvt,2021-03-15 10:12:09.038959+00:00,2,642,,Don't Cheat,0,0,0,1,1,46,7igvdhlu,1,15,151,0,1,1,0,14,"Agribusiness, B.A.",1,2,18-24,Viet Nam,1,0.02173913,1,framed
1,265l99ai,2021-03-15 10:12:08.650239+00:00,1,644,Don't Control,,0,0,0,1,1,47,7igvdhlu,1,15,151,1,0,2,14,0,International Taxation and Law,23,2,18-24,Germany,1,0.021276596,1,framed
2,2fsj9qvt,2021-03-15 10:12:09.038959+00:00,2,656,,Don't Cheat,0,0,0,1,1,47,7igvdhlu,1,15,151,0,1,1,0,14,"Agribusiness, B.A.",1,2,18-24,Viet Nam,1,0.021276596,1,framed
1,265l99ai,2021-03-15 10:12:08.650239+00:00,1,658,Don't Control,,0,0,0,1,1,48,7igvdhlu,1,15,151,1,0,2,14,0,International Taxation and Law,23,2,18-24,Germany,1,0.020833333,1,framed
2,2fsj9qvt,2021-03-15 10:12:09.038959+00:00,2,670,,Don't Cheat,0,0,0,1,1,48,7igvdhlu,1,15,151,0,1,1,0,14,"Agribusiness, B.A.",1,2,18-24,Viet Nam,1,0.020833333,1,framed
1,265l99ai,2021-03-15 10:12:08.650239+00:00,1,672,Don't Control,,0,0,0,1,1,49,7igvdhlu,1,15,151,1,0,2,14,0,International Taxation and Law,23,2,18-24,Germany,1,0.020408163,1,framed
2,2fsj9qvt,2021-03-15 10:12:09.038959+00:00,2,684,,Don't Cheat,0,0,0,1,1,49,7igvdhlu,1,15,151,0,1,1,0,14,"Agribusiness, B.A.",1,2,18-24,Viet Nam,1,0.020408163,1,framed
1,265l99ai,2021-03-15 10:12:08.650239+00:00,1,686,Don't Control,,0,0,0,1,1,50,7igvdhlu,1,15,151,1,0,2,14,0,International Taxation and Law,23,2,18-24,Germany,1,0.02,1,framed
2,2fsj9qvt,2021-03-15 10:12:09.038959+00:00,2,698,,Don't Cheat,0,0,0,1,1,50,7igvdhlu,1,15,151,0,1,1,0,14,"Agribusiness, B.A.",1,2,18-24,Viet Nam,1,0.02,1,framed
1,265l99ai,2021-03-15 10:12:08.650239+00:00,1,700,Don't Control,,0,0,0,1,1,51,7igvdhlu,1,15,151,1,0,2,14,0,International Taxation and Law,23,2,18-24,Germany,1,0.019607843,1,framed
2,2fsj9qvt,2021-03-15 10:12:09.038959+00:00,2,712,,Don't Cheat,0,0,0,1,1,51,7igvdhlu,1,15,151,0,1,1,0,14,"Agribusiness, B.A.",1,2,18-24,Viet Nam,1,0.019607843,1,framed
1,265l99ai,2021-03-15 10:12:08.650239+00:00,1,714,Don't Control,,0,0,0,1,1,52,7igvdhlu,1,15,151,1,0,2,14,0,International Taxation and Law,23,2,18-24,Germany,1,0.019230769,1,framed
2,2fsj9qvt,2021-03-15 10:12:09.038959+00:00,2,726,,Don't Cheat,0,0,0,1,1,52,7igvdhlu,1,15,151,0,1,1,0,14,"Agribusiness, B.A.",1,2,18-24,Viet Nam,1,0.019230769,1,framed
1,265l99ai,2021-03-15 10:12:08.650239+00:00,1,728,Don't Control,,0,0,0,1,1,53,7igvdhlu,1,15,151,1,0,2,14,0,International Taxation and Law,23,2,18-24,Germany,1,0.018867925,1,framed
2,2fsj9qvt,2021-03-15 10:12:09.038959+00:00,2,740,,Don't Cheat,0,0,0,1,1,53,7igvdhlu,1,15,151,0,1,1,0,14,"Agribusiness, B.A.",1,2,18-24,Viet Nam,1,0.018867925,1,framed
1,265l99ai,2021-03-15 10:12:08.650239+00:00,1,742,Don't Control,,0,0,0,1,1,54,7igvdhlu,1,15,151,1,0,2,14,0,International Taxation and Law,23,2,18-24,Germany,1,0.018518519,1,framed
2,2fsj9qvt,2021-03-15 10:12:09.038959+00:00,2,754,,Don't Cheat,0,0,0,1,1,54,7igvdhlu,1,15,151,0,1,1,0,14,"Agribusiness, B.A.",1,2,18-24,Viet Nam,1,0.018518519,1,framed
1,265l99ai,2021-03-15 10:12:08.650239+00:00,1,756,Don't Control,,0,0,0,1,1,55,7igvdhlu,1,15,151,1,0,2,14,0,International Taxation and Law,23,2,18-24,Germany,1,0.018181818,1,framed
2,2fsj9qvt,2021-03-15 10:12:09.038959+00:00,2,768,,Don't Cheat,0,0,0,1,1,55,7igvdhlu,1,15,151,0,1,1,0,14,"Agribusiness, B.A.",1,2,18-24,Viet Nam,1,0.018181818,1,framed
1,265l99ai,2021-03-15 10:12:08.650239+00:00,1,770,Don't Control,,0,0,0,1,1,56,7igvdhlu,1,15,151,1,0,2,14,0,International Taxation and Law,23,2,18-24,Germany,1,0.017857143,1,framed
2,2fsj9qvt,2021-03-15 10:12:09.038959+00:00,2,782,,Don't Cheat,0,0,0,1,1,56,7igvdhlu,1,15,151,0,1,1,0,14,"Agribusiness, B.A.",1,2,18-24,Viet Nam,1,0.017857143,1,framed
1,265l99ai,2021-03-15 10:12:08.650239+00:00,1,784,Don't Control,,0,0,0,1,1,57,7igvdhlu,1,15,151,1,0,2,14,0,International Taxation and Law,23,2,18-24,Germany,1,0.01754386,1,framed
2,2fsj9qvt,2021-03-15 10:12:09.038959+00:00,2,796,,Don't Cheat,0,0,0,1,1,57,7igvdhlu,1,15,151,0,1,1,0,14,"Agribusiness, B.A.",1,2,18-24,Viet Nam,1,0.01754386,1,framed
1,265l99ai,2021-03-15 10:12:08.650239+00:00,1,798,Don't Control,,0,0,0,1,1,58,7igvdhlu,1,15,151,1,0,2,14,0,International Taxation and Law,23,2,18-24,Germany,1,0.017241379,1,framed
2,2fsj9qvt,2021-03-15 10:12:09.038959+00:00,2,810,,Don't Cheat,0,0,0,1,1,58,7igvdhlu,1,15,151,0,1,1,0,14,"Agribusiness, B.A.",1,2,18-24,Viet Nam,1,0.017241379,1,framed
1,265l99ai,2021-03-15 10:12:08.650239+00:00,1,812,Don't Control,,0,0,0,1,1,59,7igvdhlu,1,15,151,1,0,2,14,0,International Taxation and Law,23,2,18-24,Germany,1,0.016949153,1,framed
2,2fsj9qvt,2021-03-15 10:12:09.038959+00:00,2,824,,Don't Cheat,0,0,0,1,1,59,7igvdhlu,1,15,151,0,1,1,0,14,"Agribusiness, B.A.",1,2,18-24,Viet Nam,1,0.016949153,1,framed
1,265l99ai,2021-03-15 10:12:08.650239+00:00,1,826,Don't Control,,0,0,0,1,1,60,7igvdhlu,1,15,151,1,0,2,14,0,International Taxation and Law,23,2,18-24,Germany,1,0.016666667,1,framed
2,2fsj9qvt,2021-03-15 10:12:09.038959+00:00,2,838,,Don't Cheat,0,0,0,1,1,60,7igvdhlu,1,15,151,0,1,1,0,14,"Agribusiness, B.A.",1,2,18-24,Viet Nam,1,0.016666667,1,framed
1,265l99ai,2021-03-15 10:12:08.650239+00:00,1,840,Don't Control,,0,0,0,1,1,61,7igvdhlu,1,15,151,1,0,2,14,0,International Taxation and Law,23,2,18-24,Germany,1,0.016393443,1,framed
2,2fsj9qvt,2021-03-15 10:12:09.038959+00:00,2,852,,Don't Cheat,0,0,0,1,1,61,7igvdhlu,1,15,151,0,1,1,0,14,"Agribusiness, B.A.",1,2,18-24,Viet Nam,1,0.016393443,1,framed
1,265l99ai,2021-03-15 10:12:08.650239+00:00,1,854,Don't Control,,0,0,0,1,1,62,7igvdhlu,1,15,151,1,0,2,14,0,International Taxation and Law,23,2,18-24,Germany,1,0.016129032,1,framed
2,2fsj9qvt,2021-03-15 10:12:09.038959+00:00,2,866,,Don't Cheat,0,0,0,1,1,62,7igvdhlu,1,15,151,0,1,1,0,14,"Agribusiness, B.A.",1,2,18-24,Viet Nam,1,0.016129032,1,framed
1,265l99ai,2021-03-15 10:12:08.650239+00:00,1,868,Don't Control,,0,0,0,1,1,63,7igvdhlu,1,15,151,1,0,2,14,0,International Taxation and Law,23,2,18-24,Germany,1,0.015873016,1,framed
2,2fsj9qvt,2021-03-15 10:12:09.038959+00:00,2,880,,Don't Cheat,0,0,0,1,1,63,7igvdhlu,1,15,151,0,1,1,0,14,"Agribusiness, B.A.",1,2,18-24,Viet Nam,1,0.015873016,1,framed
1,265l99ai,2021-03-15 10:12:08.650239+00:00,1,882,Don't Control,,0,0,0,1,1,64,7igvdhlu,1,15,151,1,0,2,14,0,International Taxation and Law,23,2,18-24,Germany,1,0.015625,1,framed
2,2fsj9qvt,2021-03-15 10:12:09.038959+00:00,2,894,,Don't Cheat,0,0,0,1,1,64,7igvdhlu,1,15,151,0,1,1,0,14,"Agribusiness, B.A.",1,2,18-24,Viet Nam,1,0.015625,1,framed
1,265l99ai,2021-03-15 10:12:08.650239+00:00,1,896,Don't Control,,0,0,0,1,1,65,7igvdhlu,1,15,151,1,0,2,14,0,International Taxation and Law,23,2,18-24,Germany,1,0.015384615,1,framed
2,2fsj9qvt,2021-03-15 10:12:09.038959+00:00,2,908,,Don't Cheat,0,0,0,1,1,65,7igvdhlu,1,15,151,0,1,1,0,14,"Agribusiness, B.A.",1,2,18-24,Viet Nam,1,0.015384615,1,framed
1,265l99ai,2021-03-15 10:12:08.650239+00:00,1,910,Don't Control,,0,0,0,1,1,66,7igvdhlu,1,15,151,1,0,2,14,0,International Taxation and Law,23,2,18-24,Germany,1,0.015151515,1,framed
2,2fsj9qvt,2021-03-15 10:12:09.038959+00:00,2,922,,Don't Cheat,0,0,0,1,1,66,7igvdhlu,1,15,151,0,1,1,0,14,"Agribusiness, B.A.",1,2,18-24,Viet Nam,1,0.015151515,1,framed
1,265l99ai,2021-03-15 10:12:08.650239+00:00,1,924,Don't Control,,0,0,0,1,1,67,7igvdhlu,1,15,151,1,0,2,14,0,International Taxation and Law,23,2,18-24,Germany,1,0.014925373,1,framed
2,2fsj9qvt,2021-03-15 10:12:09.038959+00:00,2,936,,Don't Cheat,0,0,0,1,1,67,7igvdhlu,1,15,151,0,1,1,0,14,"Agribusiness, B.A.",1,2,18-24,Viet Nam,1,0.014925373,1,framed
1,265l99ai,2021-03-15 10:12:08.650239+00:00,1,938,Don't Control,,0,0,0,1,1,68,7igvdhlu,1,15,151,1,0,2,14,0,International Taxation and Law,23,2,18-24,Germany,1,0.014705882,1,framed
2,2fsj9qvt,2021-03-15 10:12:09.038959+00:00,2,950,,Don't Cheat,0,0,0,1,1,68,7igvdhlu,1,15,151,0,1,1,0,14,"Agribusiness, B.A.",1,2,18-24,Viet Nam,1,0.014705882,1,framed
1,265l99ai,2021-03-15 10:12:08.650239+00:00,1,952,Don't Control,,0,0,0,1,1,69,7igvdhlu,1,15,151,1,0,2,14,0,International Taxation and Law,23,2,18-24,Germany,1,0.014492754,1,framed
2,2fsj9qvt,2021-03-15 10:12:09.038959+00:00,2,964,,Don't Cheat,0,0,0,1,1,69,7igvdhlu,1,15,151,0,1,1,0,14,"Agribusiness, B.A.",1,2,18-24,Viet Nam,1,0.014492754,1,framed
1,265l99ai,2021-03-15 10:12:08.650239+00:00,1,966,Don't Control,,0,0,0,1,1,70,7igvdhlu,1,15,151,1,0,2,14,0,International Taxation and Law,23,2,18-24,Germany,1,0.014285714,1,framed
2,2fsj9qvt,2021-03-15 10:12:09.038959+00:00,2,978,,Don't Cheat,0,0,0,1,1,70,7igvdhlu,1,15,151,0,1,1,0,14,"Agribusiness, B.A.",1,2,18-24,Viet Nam,1,0.014285714,1,framed
3,7xjh9hwo,2021-03-15 10:12:09.096918+00:00,1,11,Control,,1,0,1,0,2,1,7igvdhlu,1,15,152,1,0,1,11,0,Anglistik/Amerikanistik,39,4,35-44,Germany,1,1,1,framed
4,e8jis7nf,2021-03-15 10:12:09.281927+00:00,2,10,,Don't Cheat,0,0,0,1,2,1,7igvdhlu,1,15,152,0,0,1,0,14,Religionswissenschaft,34,2,18-24,Germany,0,0,1,framed
3,7xjh9hwo,2021-03-15 10:12:09.096918+00:00,1,22,Control,,1,0,1,0,2,2,7igvdhlu,1,15,152,2,0,1,11,0,Anglistik/Amerikanistik,39,4,35-44,Germany,2,1,1,framed
4,e8jis7nf,2021-03-15 10:12:09.281927+00:00,2,20,,Don't Cheat,0,0,0,1,2,2,7igvdhlu,1,15,152,0,0,1,0,14,Religionswissenschaft,34,2,18-24,Germany,0,0,1,framed
3,7xjh9hwo,2021-03-15 10:12:09.096918+00:00,1,33,Control,,1,0,1,0,2,3,7igvdhlu,1,15,152,3,0,1,11,0,Anglistik/Amerikanistik,39,4,35-44,Germany,3,1,1,framed
4,e8jis7nf,2021-03-15 10:12:09.281927+00:00,2,30,,Don't Cheat,0,0,0,1,2,3,7igvdhlu,1,15,152,0,0,1,0,14,Religionswissenschaft,34,2,18-24,Germany,0,0,1,framed
3,7xjh9hwo,2021-03-15 10:12:09.096918+00:00,1,44,Control,,1,0,1,0,2,4,7igvdhlu,1,15,152,4,0,1,11,0,Anglistik/Amerikanistik,39,4,35-44,Germany,4,1,1,framed
4,e8jis7nf,2021-03-15 10:12:09.281927+00:00,2,40,,Don't Cheat,0,0,0,1,2,4,7igvdhlu,1,15,152,0,0,1,0,14,Religionswissenschaft,34,2,18-24,Germany,0,0,1,framed
3,7xjh9hwo,2021-03-15 10:12:09.096918+00:00,1,58,Don't Control,,0,0,0,1,2,5,7igvdhlu,1,15,152,4,0,1,14,0,Anglistik/Amerikanistik,39,4,35-44,Germany,4,0.8,1,framed
4,e8jis7nf,2021-03-15 10:12:09.281927+00:00,2,54,,Don't Cheat,0,0,0,1,2,5,7igvdhlu,1,15,152,0,0,1,0,14,Religionswissenschaft,34,2,18-24,Germany,0,0,1,framed
3,7xjh9hwo,2021-03-15 10:12:09.096918+00:00,1,61,Don't Control,,0,0,0,1,2,6,7igvdhlu,1,15,152,4,0,1,14,0,Anglistik/Amerikanistik,39,4,35-44,Germany,4,0.666666667,1,framed
4,e8jis7nf,2021-03-15 10:12:09.281927+00:00,2,70,,Cheat,0,1,1,0,2,6,7igvdhlu,1,15,152,0,1,1,0,16,Religionswissenschaft,34,2,18-24,Germany,1,0.166666667,1,framed
3,7xjh9hwo,2021-03-15 10:12:09.096918+00:00,1,72,Control,,1,0,1,0,2,7,7igvdhlu,1,15,152,5,0,1,11,0,Anglistik/Amerikanistik,39,4,35-44,Germany,5,0.714285714,1,framed
4,e8jis7nf,2021-03-15 10:12:09.281927+00:00,2,80,,Don't Cheat,0,0,0,1,2,7,7igvdhlu,1,15,152,0,1,1,0,14,Religionswissenschaft,34,2,18-24,Germany,1,0.142857143,1,framed
3,7xjh9hwo,2021-03-15 10:12:09.096918+00:00,1,83,Control,,1,0,1,0,2,8,7igvdhlu,1,15,152,6,0,1,11,0,Anglistik/Amerikanistik,39,4,35-44,Germany,6,0.75,1,framed
4,e8jis7nf,2021-03-15 10:12:09.281927+00:00,2,90,,Don't Cheat,0,0,0,1,2,8,7igvdhlu,1,15,152,0,1,1,0,14,Religionswissenschaft,34,2,18-24,Germany,1,0.125,1,framed
3,7xjh9hwo,2021-03-15 10:12:09.096918+00:00,1,94,Control,,1,0,1,0,2,9,7igvdhlu,1,15,152,7,0,1,11,0,Anglistik/Amerikanistik,39,4,35-44,Germany,7,0.777777778,1,framed
4,e8jis7nf,2021-03-15 10:12:09.281927+00:00,2,100,,Don't Cheat,0,0,0,1,2,9,7igvdhlu,1,15,152,0,1,1,0,14,Religionswissenschaft,34,2,18-24,Germany,1,0.111111111,1,framed
3,7xjh9hwo,2021-03-15 10:12:09.096918+00:00,1,105,Control,,1,0,1,0,2,10,7igvdhlu,1,15,152,8,0,1,11,0,Anglistik/Amerikanistik,39,4,35-44,Germany,8,0.8,1,framed
4,e8jis7nf,2021-03-15 10:12:09.281927+00:00,2,110,,Don't Cheat,0,0,0,1,2,10,7igvdhlu,1,15,152,0,1,1,0,14,Religionswissenschaft,34,2,18-24,Germany,1,0.1,1,framed
3,7xjh9hwo,2021-03-15 10:12:09.096918+00:00,1,116,Control,,1,0,1,0,2,11,7igvdhlu,1,15,152,9,0,1,11,0,Anglistik/Amerikanistik,39,4,35-44,Germany,9,0.818181818,1,framed
4,e8jis7nf,2021-03-15 10:12:09.281927+00:00,2,120,,Don't Cheat,0,0,0,1,2,11,7igvdhlu,1,15,152,0,1,1,0,14,Religionswissenschaft,34,2,18-24,Germany,1,0.090909091,1,framed
3,7xjh9hwo,2021-03-15 10:12:09.096918+00:00,1,127,Control,,1,0,1,0,2,12,7igvdhlu,1,15,152,10,0,1,11,0,Anglistik/Amerikanistik,39,4,35-44,Germany,10,0.833333333,1,framed
4,e8jis7nf,2021-03-15 10:12:09.281927+00:00,2,130,,Don't Cheat,0,0,0,1,2,12,7igvdhlu,1,15,152,0,1,1,0,14,Religionswissenschaft,34,2,18-24,Germany,1,0.083333333,1,framed
3,7xjh9hwo,2021-03-15 10:12:09.096918+00:00,1,138,Control,,1,0,1,0,2,13,7igvdhlu,1,15,152,11,0,1,11,0,Anglistik/Amerikanistik,39,4,35-44,Germany,11,0.846153846,1,framed
4,e8jis7nf,2021-03-15 10:12:09.281927+00:00,2,140,,Don't Cheat,0,0,0,1,2,13,7igvdhlu,1,15,152,0,1,1,0,14,Religionswissenschaft,34,2,18-24,Germany,1,0.076923077,1,framed
3,7xjh9hwo,2021-03-15 10:12:09.096918+00:00,1,149,Control,,1,0,1,0,2,14,7igvdhlu,1,15,152,12,0,1,11,0,Anglistik/Amerikanistik,39,4,35-44,Germany,12,0.857142857,1,framed
4,e8jis7nf,2021-03-15 10:12:09.281927+00:00,2,150,,Don't Cheat,0,0,0,1,2,14,7igvdhlu,1,15,152,0,1,1,0,14,Religionswissenschaft,34,2,18-24,Germany,1,0.071428571,1,framed
3,7xjh9hwo,2021-03-15 10:12:09.096918+00:00,1,160,Control,,1,0,1,0,2,15,7igvdhlu,1,15,152,13,0,1,11,0,Anglistik/Amerikanistik,39,4,35-44,Germany,13,0.866666667,1,framed
4,e8jis7nf,2021-03-15 10:12:09.281927+00:00,2,160,,Don't Cheat,0,0,0,1,2,15,7igvdhlu,1,15,152,0,1,1,0,14,Religionswissenschaft,34,2,18-24,Germany,1,0.066666667,1,framed
3,7xjh9hwo,2021-03-15 10:12:09.096918+00:00,1,171,Control,,1,0,1,0,2,16,7igvdhlu,1,15,152,14,0,1,11,0,Anglistik/Amerikanistik,39,4,35-44,Germany,14,0.875,1,framed
4,e8jis7nf,2021-03-15 10:12:09.281927+00:00,2,170,,Don't Cheat,0,0,0,1,2,16,7igvdhlu,1,15,152,0,1,1,0,14,Religionswissenschaft,34,2,18-24,Germany,1,0.0625,1,framed
3,7xjh9hwo,2021-03-15 10:12:09.096918+00:00,1,182,Control,,1,0,1,0,2,17,7igvdhlu,1,15,152,15,0,1,11,0,Anglistik/Amerikanistik,39,4,35-44,Germany,15,0.882352941,1,framed
4,e8jis7nf,2021-03-15 10:12:09.281927+00:00,2,180,,Don't Cheat,0,0,0,1,2,17,7igvdhlu,1,15,152,0,1,1,0,14,Religionswissenschaft,34,2,18-24,Germany,1,0.058823529,1,framed
3,7xjh9hwo,2021-03-15 10:12:09.096918+00:00,1,193,Control,,1,0,1,0,2,18,7igvdhlu,1,15,152,16,0,1,11,0,Anglistik/Amerikanistik,39,4,35-44,Germany,16,0.888888889,1,framed
4,e8jis7nf,2021-03-15 10:12:09.281927+00:00,2,190,,Don't Cheat,0,0,0,1,2,18,7igvdhlu,1,15,152,0,1,1,0,14,Religionswissenschaft,34,2,18-24,Germany,1,0.055555556,1,framed
3,7xjh9hwo,2021-03-15 10:12:09.096918+00:00,1,204,Control,,1,0,1,0,2,19,7igvdhlu,1,15,152,17,0,1,11,0,Anglistik/Amerikanistik,39,4,35-44,Germany,17,0.894736842,1,framed
4,e8jis7nf,2021-03-15 10:12:09.281927+00:00,2,200,,Don't Cheat,0,0,0,1,2,19,7igvdhlu,1,15,152,0,1,1,0,14,Religionswissenschaft,34,2,18-24,Germany,1,0.052631579,1,framed
3,7xjh9hwo,2021-03-15 10:12:09.096918+00:00,1,215,Control,,1,0,1,0,2,20,7igvdhlu,1,15,152,18,0,1,11,0,Anglistik/Amerikanistik,39,4,35-44,Germany,18,0.9,1,framed
4,e8jis7nf,2021-03-15 10:12:09.281927+00:00,2,210,,Don't Cheat,0,0,0,1,2,20,7igvdhlu,1,15,152,0,1,1,0,14,Religionswissenschaft,34,2,18-24,Germany,1,0.05,1,framed
3,7xjh9hwo,2021-03-15 10:12:09.096918+00:00,1,226,Control,,1,0,1,0,2,21,7igvdhlu,1,15,152,19,0,1,11,0,Anglistik/Amerikanistik,39,4,35-44,Germany,19,0.904761905,1,framed
4,e8jis7nf,2021-03-15 10:12:09.281927+00:00,2,220,,Don't Cheat,0,0,0,1,2,21,7igvdhlu,1,15,152,0,1,1,0,14,Religionswissenschaft,34,2,18-24,Germany,1,0.047619048,1,framed
3,7xjh9hwo,2021-03-15 10:12:09.096918+00:00,1,237,Control,,1,0,1,0,2,22,7igvdhlu,1,15,152,20,0,1,11,0,Anglistik/Amerikanistik,39,4,35-44,Germany,20,0.909090909,1,framed
4,e8jis7nf,2021-03-15 10:12:09.281927+00:00,2,230,,Don't Cheat,0,0,0,1,2,22,7igvdhlu,1,15,152,0,1,1,0,14,Religionswissenschaft,34,2,18-24,Germany,1,0.045454545,1,framed
3,7xjh9hwo,2021-03-15 10:12:09.096918+00:00,1,248,Control,,1,0,1,0,2,23,7igvdhlu,1,15,152,21,0,1,11,0,Anglistik/Amerikanistik,39,4,35-44,Germany,21,0.913043478,1,framed
4,e8jis7nf,2021-03-15 10:12:09.281927+00:00,2,240,,Don't Cheat,0,0,0,1,2,23,7igvdhlu,1,15,152,0,1,1,0,14,Religionswissenschaft,34,2,18-24,Germany,1,0.043478261,1,framed
3,7xjh9hwo,2021-03-15 10:12:09.096918+00:00,1,259,Control,,1,0,1,0,2,24,7igvdhlu,1,15,152,22,0,1,11,0,Anglistik/Amerikanistik,39,4,35-44,Germany,22,0.916666667,1,framed
4,e8jis7nf,2021-03-15 10:12:09.281927+00:00,2,250,,Don't Cheat,0,0,0,1,2,24,7igvdhlu,1,15,152,0,1,1,0,14,Religionswissenschaft,34,2,18-24,Germany,1,0.041666667,1,framed
3,7xjh9hwo,2021-03-15 10:12:09.096918+00:00,1,270,Control,,1,0,1,0,2,25,7igvdhlu,1,15,152,23,0,1,11,0,Anglistik/Amerikanistik,39,4,35-44,Germany,23,0.92,1,framed
4,e8jis7nf,2021-03-15 10:12:09.281927+00:00,2,260,,Don't Cheat,0,0,0,1,2,25,7igvdhlu,1,15,152,0,1,1,0,14,Religionswissenschaft,34,2,18-24,Germany,1,0.04,1,framed
3,7xjh9hwo,2021-03-15 10:12:09.096918+00:00,1,281,Control,,1,0,1,0,2,26,7igvdhlu,1,15,152,24,0,1,11,0,Anglistik/Amerikanistik,39,4,35-44,Germany,24,0.923076923,1,framed
4,e8jis7nf,2021-03-15 10:12:09.281927+00:00,2,270,,Don't Cheat,0,0,0,1,2,26,7igvdhlu,1,15,152,0,1,1,0,14,Religionswissenschaft,34,2,18-24,Germany,1,0.038461538,1,framed
3,7xjh9hwo,2021-03-15 10:12:09.096918+00:00,1,292,Control,,1,0,1,0,2,27,7igvdhlu,1,15,152,25,0,1,11,0,Anglistik/Amerikanistik,39,4,35-44,Germany,25,0.925925926,1,framed
4,e8jis7nf,2021-03-15 10:12:09.281927+00:00,2,280,,Don't Cheat,0,0,0,1,2,27,7igvdhlu,1,15,152,0,1,1,0,14,Religionswissenschaft,34,2,18-24,Germany,1,0.037037037,1,framed
3,7xjh9hwo,2021-03-15 10:12:09.096918+00:00,1,303,Control,,1,0,1,0,2,28,7igvdhlu,1,15,152,26,0,1,11,0,Anglistik/Amerikanistik,39,4,35-44,Germany,26,0.928571429,1,framed
4,e8jis7nf,2021-03-15 10:12:09.281927+00:00,2,290,,Don't Cheat,0,0,0,1,2,28,7igvdhlu,1,15,152,0,1,1,0,14,Religionswissenschaft,34,2,18-24,Germany,1,0.035714286,1,framed
3,7xjh9hwo,2021-03-15 10:12:09.096918+00:00,1,314,Control,,1,0,1,0,2,29,7igvdhlu,1,15,152,27,0,1,11,0,Anglistik/Amerikanistik,39,4,35-44,Germany,27,0.931034483,1,framed
4,e8jis7nf,2021-03-15 10:12:09.281927+00:00,2,300,,Don't Cheat,0,0,0,1,2,29,7igvdhlu,1,15,152,0,1,1,0,14,Religionswissenschaft,34,2,18-24,Germany,1,0.034482759,1,framed
3,7xjh9hwo,2021-03-15 10:12:09.096918+00:00,1,325,Control,,1,0,1,0,2,30,7igvdhlu,1,15,152,28,0,1,11,0,Anglistik/Amerikanistik,39,4,35-44,Germany,28,0.933333333,1,framed
4,e8jis7nf,2021-03-15 10:12:09.281927+00:00,2,310,,Don't Cheat,0,0,0,1,2,30,7igvdhlu,1,15,152,0,1,1,0,14,Religionswissenschaft,34,2,18-24,Germany,1,0.033333333,1,framed
3,7xjh9hwo,2021-03-15 10:12:09.096918+00:00,1,336,Control,,1,0,1,0,2,31,7igvdhlu,1,15,152,29,0,1,11,0,Anglistik/Amerikanistik,39,4,35-44,Germany,29,0.935483871,1,framed
4,e8jis7nf,2021-03-15 10:12:09.281927+00:00,2,320,,Don't Cheat,0,0,0,1,2,31,7igvdhlu,1,15,152,0,1,1,0,14,Religionswissenschaft,34,2,18-24,Germany,1,0.032258065,1,framed
3,7xjh9hwo,2021-03-15 10:12:09.096918+00:00,1,348,Control,,1,0,1,0,2,32,7igvdhlu,1,15,152,30,0,1,11,0,Anglistik/Amerikanistik,39,4,35-44,Germany,30,0.9375,1,framed
4,e8jis7nf,2021-03-15 10:12:09.281927+00:00,2,322,,Cheat,0,1,1,0,2,32,7igvdhlu,1,15,152,0,2,1,0,16,Religionswissenschaft,34,2,18-24,Germany,2,0.0625,1,framed
3,7xjh9hwo,2021-03-15 10:12:09.096918+00:00,1,359,Control,,1,0,1,0,2,33,7igvdhlu,1,15,152,31,0,1,11,0,Anglistik/Amerikanistik,39,4,35-44,Germany,31,0.939393939,1,framed
4,e8jis7nf,2021-03-15 10:12:09.281927+00:00,2,332,,Don't Cheat,0,0,0,1,2,33,7igvdhlu,1,15,152,0,2,1,0,14,Religionswissenschaft,34,2,18-24,Germany,2,0.060606061,1,framed
3,7xjh9hwo,2021-03-15 10:12:09.096918+00:00,1,370,Control,,1,0,1,0,2,34,7igvdhlu,1,15,152,32,0,1,11,0,Anglistik/Amerikanistik,39,4,35-44,Germany,32,0.941176471,1,framed
4,e8jis7nf,2021-03-15 10:12:09.281927+00:00,2,342,,Don't Cheat,0,0,0,1,2,34,7igvdhlu,1,15,152,0,2,1,0,14,Religionswissenschaft,34,2,18-24,Germany,2,0.058823529,1,framed
3,7xjh9hwo,2021-03-15 10:12:09.096918+00:00,1,381,Control,,1,0,1,0,2,35,7igvdhlu,1,15,152,33,0,1,11,0,Anglistik/Amerikanistik,39,4,35-44,Germany,33,0.942857143,1,framed
4,e8jis7nf,2021-03-15 10:12:09.281927+00:00,2,352,,Don't Cheat,0,0,0,1,2,35,7igvdhlu,1,15,152,0,2,1,0,14,Religionswissenschaft,34,2,18-24,Germany,2,0.057142857,1,framed
3,7xjh9hwo,2021-03-15 10:12:09.096918+00:00,1,392,Control,,1,0,1,0,2,36,7igvdhlu,1,15,152,34,0,1,11,0,Anglistik/Amerikanistik,39,4,35-44,Germany,34,0.944444444,1,framed
4,e8jis7nf,2021-03-15 10:12:09.281927+00:00,2,362,,Don't Cheat,0,0,0,1,2,36,7igvdhlu,1,15,152,0,2,1,0,14,Religionswissenschaft,34,2,18-24,Germany,2,0.055555556,1,framed
3,7xjh9hwo,2021-03-15 10:12:09.096918+00:00,1,403,Control,,1,0,1,0,2,37,7igvdhlu,1,15,152,35,0,1,11,0,Anglistik/Amerikanistik,39,4,35-44,Germany,35,0.945945946,1,framed
4,e8jis7nf,2021-03-15 10:12:09.281927+00:00,2,372,,Don't Cheat,0,0,0,1,2,37,7igvdhlu,1,15,152,0,2,1,0,14,Religionswissenschaft,34,2,18-24,Germany,2,0.054054054,1,framed
3,7xjh9hwo,2021-03-15 10:12:09.096918+00:00,1,414,Control,,1,0,1,0,2,38,7igvdhlu,1,15,152,36,0,1,11,0,Anglistik/Amerikanistik,39,4,35-44,Germany,36,0.947368421,1,framed
4,e8jis7nf,2021-03-15 10:12:09.281927+00:00,2,382,,Don't Cheat,0,0,0,1,2,38,7igvdhlu,1,15,152,0,2,1,0,14,Religionswissenschaft,34,2,18-24,Germany,2,0.052631579,1,framed
3,7xjh9hwo,2021-03-15 10:12:09.096918+00:00,1,425,Control,,1,0,1,0,2,39,7igvdhlu,1,15,152,37,0,1,11,0,Anglistik/Amerikanistik,39,4,35-44,Germany,37,0.948717949,1,framed
4,e8jis7nf,2021-03-15 10:12:09.281927+00:00,2,392,,Don't Cheat,0,0,0,1,2,39,7igvdhlu,1,15,152,0,2,1,0,14,Religionswissenschaft,34,2,18-24,Germany,2,0.051282051,1,framed
3,7xjh9hwo,2021-03-15 10:12:09.096918+00:00,1,436,Control,,1,0,1,0,2,40,7igvdhlu,1,15,152,38,0,1,11,0,Anglistik/Amerikanistik,39,4,35-44,Germany,38,0.95,1,framed
4,e8jis7nf,2021-03-15 10:12:09.281927+00:00,2,402,,Don't Cheat,0,0,0,1,2,40,7igvdhlu,1,15,152,0,2,1,0,14,Religionswissenschaft,34,2,18-24,Germany,2,0.05,1,framed
3,7xjh9hwo,2021-03-15 10:12:09.096918+00:00,1,447,Control,,1,0,1,0,2,41,7igvdhlu,1,15,152,39,0,1,11,0,Anglistik/Amerikanistik,39,4,35-44,Germany,39,0.951219512,1,framed
4,e8jis7nf,2021-03-15 10:12:09.281927+00:00,2,412,,Don't Cheat,0,0,0,1,2,41,7igvdhlu,1,15,152,0,2,1,0,14,Religionswissenschaft,34,2,18-24,Germany,2,0.048780488,1,framed
3,7xjh9hwo,2021-03-15 10:12:09.096918+00:00,1,458,Control,,1,0,1,0,2,42,7igvdhlu,1,15,152,40,0,1,11,0,Anglistik/Amerikanistik,39,4,35-44,Germany,40,0.952380952,1,framed
4,e8jis7nf,2021-03-15 10:12:09.281927+00:00,2,422,,Don't Cheat,0,0,0,1,2,42,7igvdhlu,1,15,152,0,2,1,0,14,Religionswissenschaft,34,2,18-24,Germany,2,0.047619048,1,framed
3,7xjh9hwo,2021-03-15 10:12:09.096918+00:00,1,469,Control,,1,0,1,0,2,43,7igvdhlu,1,15,152,41,0,1,11,0,Anglistik/Amerikanistik,39,4,35-44,Germany,41,0.953488372,1,framed
4,e8jis7nf,2021-03-15 10:12:09.281927+00:00,2,432,,Don't Cheat,0,0,0,1,2,43,7igvdhlu,1,15,152,0,2,1,0,14,Religionswissenschaft,34,2,18-24,Germany,2,0.046511628,1,framed
3,7xjh9hwo,2021-03-15 10:12:09.096918+00:00,1,480,Control,,1,0,1,0,2,44,7igvdhlu,1,15,152,42,0,1,11,0,Anglistik/Amerikanistik,39,4,35-44,Germany,42,0.954545455,1,framed
4,e8jis7nf,2021-03-15 10:12:09.281927+00:00,2,442,,Don't Cheat,0,0,0,1,2,44,7igvdhlu,1,15,152,0,2,1,0,14,Religionswissenschaft,34,2,18-24,Germany,2,0.045454545,1,framed
3,7xjh9hwo,2021-03-15 10:12:09.096918+00:00,1,491,Control,,1,0,1,0,2,45,7igvdhlu,1,15,152,43,0,1,11,0,Anglistik/Amerikanistik,39,4,35-44,Germany,43,0.955555556,1,framed
4,e8jis7nf,2021-03-15 10:12:09.281927+00:00,2,452,,Don't Cheat,0,0,0,1,2,45,7igvdhlu,1,15,152,0,2,1,0,14,Religionswissenschaft,34,2,18-24,Germany,2,0.044444444,1,framed
3,7xjh9hwo,2021-03-15 10:12:09.096918+00:00,1,502,Control,,1,0,1,0,2,46,7igvdhlu,1,15,152,44,0,1,11,0,Anglistik/Amerikanistik,39,4,35-44,Germany,44,0.956521739,1,framed
4,e8jis7nf,2021-03-15 10:12:09.281927+00:00,2,462,,Don't Cheat,0,0,0,1,2,46,7igvdhlu,1,15,152,0,2,1,0,14,Religionswissenschaft,34,2,18-24,Germany,2,0.043478261,1,framed
3,7xjh9hwo,2021-03-15 10:12:09.096918+00:00,1,513,Control,,1,0,1,0,2,47,7igvdhlu,1,15,152,45,0,1,11,0,Anglistik/Amerikanistik,39,4,35-44,Germany,45,0.957446809,1,framed
4,e8jis7nf,2021-03-15 10:12:09.281927+00:00,2,472,,Don't Cheat,0,0,0,1,2,47,7igvdhlu,1,15,152,0,2,1,0,14,Religionswissenschaft,34,2,18-24,Germany,2,0.042553191,1,framed
3,7xjh9hwo,2021-03-15 10:12:09.096918+00:00,1,524,Control,,1,0,1,0,2,48,7igvdhlu,1,15,152,46,0,1,11,0,Anglistik/Amerikanistik,39,4,35-44,Germany,46,0.958333333,1,framed
4,e8jis7nf,2021-03-15 10:12:09.281927+00:00,2,482,,Don't Cheat,0,0,0,1,2,48,7igvdhlu,1,15,152,0,2,1,0,14,Religionswissenschaft,34,2,18-24,Germany,2,0.041666667,1,framed
3,7xjh9hwo,2021-03-15 10:12:09.096918+00:00,1,535,Control,,1,0,1,0,2,49,7igvdhlu,1,15,152,47,0,1,11,0,Anglistik/Amerikanistik,39,4,35-44,Germany,47,0.959183673,1,framed
4,e8jis7nf,2021-03-15 10:12:09.281927+00:00,2,492,,Don't Cheat,0,0,0,1,2,49,7igvdhlu,1,15,152,0,2,1,0,14,Religionswissenschaft,34,2,18-24,Germany,2,0.040816327,1,framed
3,7xjh9hwo,2021-03-15 10:12:09.096918+00:00,1,546,Control,,1,0,1,0,2,50,7igvdhlu,1,15,152,48,0,1,11,0,Anglistik/Amerikanistik,39,4,35-44,Germany,48,0.96,1,framed
4,e8jis7nf,2021-03-15 10:12:09.281927+00:00,2,502,,Don't Cheat,0,0,0,1,2,50,7igvdhlu,1,15,152,0,2,1,0,14,Religionswissenschaft,34,2,18-24,Germany,2,0.04,1,framed
3,7xjh9hwo,2021-03-15 10:12:09.096918+00:00,1,557,Control,,1,0,1,0,2,51,7igvdhlu,1,15,152,49,0,1,11,0,Anglistik/Amerikanistik,39,4,35-44,Germany,49,0.960784314,1,framed
4,e8jis7nf,2021-03-15 10:12:09.281927+00:00,2,512,,Don't Cheat,0,0,0,1,2,51,7igvdhlu,1,15,152,0,2,1,0,14,Religionswissenschaft,34,2,18-24,Germany,2,0.039215686,1,framed
3,7xjh9hwo,2021-03-15 10:12:09.096918+00:00,1,568,Control,,1,0,1,0,2,52,7igvdhlu,1,15,152,50,0,1,11,0,Anglistik/Amerikanistik,39,4,35-44,Germany,50,0.961538462,1,framed
4,e8jis7nf,2021-03-15 10:12:09.281927+00:00,2,522,,Don't Cheat,0,0,0,1,2,52,7igvdhlu,1,15,152,0,2,1,0,14,Religionswissenschaft,34,2,18-24,Germany,2,0.038461538,1,framed
3,7xjh9hwo,2021-03-15 10:12:09.096918+00:00,1,579,Control,,1,0,1,0,2,53,7igvdhlu,1,15,152,51,0,1,11,0,Anglistik/Amerikanistik,39,4,35-44,Germany,51,0.962264151,1,framed
4,e8jis7nf,2021-03-15 10:12:09.281927+00:00,2,532,,Don't Cheat,0,0,0,1,2,53,7igvdhlu,1,15,152,0,2,1,0,14,Religionswissenschaft,34,2,18-24,Germany,2,0.037735849,1,framed
3,7xjh9hwo,2021-03-15 10:12:09.096918+00:00,1,591,Control,,1,0,1,0,2,54,7igvdhlu,1,15,152,52,0,1,11,0,Anglistik/Amerikanistik,39,4,35-44,Germany,52,0.962962963,1,framed
4,e8jis7nf,2021-03-15 10:12:09.281927+00:00,2,534,,Cheat,0,1,1,0,2,54,7igvdhlu,1,15,152,0,3,1,0,16,Religionswissenschaft,34,2,18-24,Germany,3,0.055555556,1,framed
3,7xjh9hwo,2021-03-15 10:12:09.096918+00:00,1,602,Control,,1,0,1,0,2,55,7igvdhlu,1,15,152,53,0,1,11,0,Anglistik/Amerikanistik,39,4,35-44,Germany,53,0.963636364,1,framed
4,e8jis7nf,2021-03-15 10:12:09.281927+00:00,2,544,,Don't Cheat,0,0,0,1,2,55,7igvdhlu,1,15,152,0,3,1,0,14,Religionswissenschaft,34,2,18-24,Germany,3,0.054545455,1,framed
3,7xjh9hwo,2021-03-15 10:12:09.096918+00:00,1,613,Control,,1,0,1,0,2,56,7igvdhlu,1,15,152,54,0,1,11,0,Anglistik/Amerikanistik,39,4,35-44,Germany,54,0.964285714,1,framed
4,e8jis7nf,2021-03-15 10:12:09.281927+00:00,2,554,,Don't Cheat,0,0,0,1,2,56,7igvdhlu,1,15,152,0,3,1,0,14,Religionswissenschaft,34,2,18-24,Germany,3,0.053571429,1,framed
3,7xjh9hwo,2021-03-15 10:12:09.096918+00:00,1,624,Control,,1,0,1,0,2,57,7igvdhlu,1,15,152,55,0,1,11,0,Anglistik/Amerikanistik,39,4,35-44,Germany,55,0.964912281,1,framed
4,e8jis7nf,2021-03-15 10:12:09.281927+00:00,2,564,,Don't Cheat,0,0,0,1,2,57,7igvdhlu,1,15,152,0,3,1,0,14,Religionswissenschaft,34,2,18-24,Germany,3,0.052631579,1,framed
3,7xjh9hwo,2021-03-15 10:12:09.096918+00:00,1,635,Control,,1,0,1,0,2,58,7igvdhlu,1,15,152,56,0,1,11,0,Anglistik/Amerikanistik,39,4,35-44,Germany,56,0.965517241,1,framed
4,e8jis7nf,2021-03-15 10:12:09.281927+00:00,2,574,,Don't Cheat,0,0,0,1,2,58,7igvdhlu,1,15,152,0,3,1,0,14,Religionswissenschaft,34,2,18-24,Germany,3,0.051724138,1,framed
3,7xjh9hwo,2021-03-15 10:12:09.096918+00:00,1,646,Control,,1,0,1,0,2,59,7igvdhlu,1,15,152,57,0,1,11,0,Anglistik/Amerikanistik,39,4,35-44,Germany,57,0.966101695,1,framed
4,e8jis7nf,2021-03-15 10:12:09.281927+00:00,2,584,,Don't Cheat,0,0,0,1,2,59,7igvdhlu,1,15,152,0,3,1,0,14,Religionswissenschaft,34,2,18-24,Germany,3,0.050847458,1,framed
3,7xjh9hwo,2021-03-15 10:12:09.096918+00:00,1,657,Control,,1,0,1,0,2,60,7igvdhlu,1,15,152,58,0,1,11,0,Anglistik/Amerikanistik,39,4,35-44,Germany,58,0.966666667,1,framed
4,e8jis7nf,2021-03-15 10:12:09.281927+00:00,2,594,,Don't Cheat,0,0,0,1,2,60,7igvdhlu,1,15,152,0,3,1,0,14,Religionswissenschaft,34,2,18-24,Germany,3,0.05,1,framed
3,7xjh9hwo,2021-03-15 10:12:09.096918+00:00,1,668,Control,,1,0,1,0,2,61,7igvdhlu,1,15,152,59,0,1,11,0,Anglistik/Amerikanistik,39,4,35-44,Germany,59,0.967213115,1,framed
4,e8jis7nf,2021-03-15 10:12:09.281927+00:00,2,604,,Don't Cheat,0,0,0,1,2,61,7igvdhlu,1,15,152,0,3,1,0,14,Religionswissenschaft,34,2,18-24,Germany,3,0.049180328,1,framed
3,7xjh9hwo,2021-03-15 10:12:09.096918+00:00,1,679,Control,,1,0,1,0,2,62,7igvdhlu,1,15,152,60,0,1,11,0,Anglistik/Amerikanistik,39,4,35-44,Germany,60,0.967741935,1,framed
4,e8jis7nf,2021-03-15 10:12:09.281927+00:00,2,614,,Don't Cheat,0,0,0,1,2,62,7igvdhlu,1,15,152,0,3,1,0,14,Religionswissenschaft,34,2,18-24,Germany,3,0.048387097,1,framed
3,7xjh9hwo,2021-03-15 10:12:09.096918+00:00,1,690,Control,,1,0,1,0,2,63,7igvdhlu,1,15,152,61,0,1,11,0,Anglistik/Amerikanistik,39,4,35-44,Germany,61,0.968253968,1,framed
4,e8jis7nf,2021-03-15 10:12:09.281927+00:00,2,624,,Don't Cheat,0,0,0,1,2,63,7igvdhlu,1,15,152,0,3,1,0,14,Religionswissenschaft,34,2,18-24,Germany,3,0.047619048,1,framed
3,7xjh9hwo,2021-03-15 10:12:09.096918+00:00,1,701,Control,,1,0,1,0,2,64,7igvdhlu,1,15,152,62,0,1,11,0,Anglistik/Amerikanistik,39,4,35-44,Germany,62,0.96875,1,framed
4,e8jis7nf,2021-03-15 10:12:09.281927+00:00,2,634,,Don't Cheat,0,0,0,1,2,64,7igvdhlu,1,15,152,0,3,1,0,14,Religionswissenschaft,34,2,18-24,Germany,3,0.046875,1,framed
3,7xjh9hwo,2021-03-15 10:12:09.096918+00:00,1,712,Control,,1,0,1,0,2,65,7igvdhlu,1,15,152,63,0,1,11,0,Anglistik/Amerikanistik,39,4,35-44,Germany,63,0.969230769,1,framed
4,e8jis7nf,2021-03-15 10:12:09.281927+00:00,2,644,,Don't Cheat,0,0,0,1,2,65,7igvdhlu,1,15,152,0,3,1,0,14,Religionswissenschaft,34,2,18-24,Germany,3,0.046153846,1,framed
3,7xjh9hwo,2021-03-15 10:12:09.096918+00:00,1,724,Control,,1,0,1,0,2,66,7igvdhlu,1,15,152,64,0,1,11,0,Anglistik/Amerikanistik,39,4,35-44,Germany,64,0.96969697,1,framed
4,e8jis7nf,2021-03-15 10:12:09.281927+00:00,2,646,,Cheat,0,1,1,0,2,66,7igvdhlu,1,15,152,0,4,1,0,16,Religionswissenschaft,34,2,18-24,Germany,4,0.060606061,1,framed
3,7xjh9hwo,2021-03-15 10:12:09.096918+00:00,1,735,Control,,1,0,1,0,2,67,7igvdhlu,1,15,152,65,0,1,11,0,Anglistik/Amerikanistik,39,4,35-44,Germany,65,0.970149254,1,framed
4,e8jis7nf,2021-03-15 10:12:09.281927+00:00,2,656,,Don't Cheat,0,0,0,1,2,67,7igvdhlu,1,15,152,0,4,1,0,14,Religionswissenschaft,34,2,18-24,Germany,4,0.059701493,1,framed
3,7xjh9hwo,2021-03-15 10:12:09.096918+00:00,1,746,Control,,1,0,1,0,2,68,7igvdhlu,1,15,152,66,0,1,11,0,Anglistik/Amerikanistik,39,4,35-44,Germany,66,0.970588235,1,framed
4,e8jis7nf,2021-03-15 10:12:09.281927+00:00,2,666,,Don't Cheat,0,0,0,1,2,68,7igvdhlu,1,15,152,0,4,1,0,14,Religionswissenschaft,34,2,18-24,Germany,4,0.058823529,1,framed
3,7xjh9hwo,2021-03-15 10:12:09.096918+00:00,1,757,Control,,1,0,1,0,2,69,7igvdhlu,1,15,152,67,0,1,11,0,Anglistik/Amerikanistik,39,4,35-44,Germany,67,0.971014493,1,framed
4,e8jis7nf,2021-03-15 10:12:09.281927+00:00,2,676,,Don't Cheat,0,0,0,1,2,69,7igvdhlu,1,15,152,0,4,1,0,14,Religionswissenschaft,34,2,18-24,Germany,4,0.057971014,1,framed
3,7xjh9hwo,2021-03-15 10:12:09.096918+00:00,1,768,Control,,1,0,1,0,2,70,7igvdhlu,1,15,152,68,0,1,11,0,Anglistik/Amerikanistik,39,4,35-44,Germany,68,0.971428571,1,framed
4,e8jis7nf,2021-03-15 10:12:09.281927+00:00,2,686,,Don't Cheat,0,0,0,1,2,70,7igvdhlu,1,15,152,0,4,1,0,14,Religionswissenschaft,34,2,18-24,Germany,4,0.057142857,1,framed
6,iyu7t1vc,2021-03-15 10:12:12.917261+00:00,2,14,,Don't Cheat,0,0,0,1,3,1,7igvdhlu,1,15,153,0,0,2,0,14,International Business and Social Siences,20,2,18-24,Germany,0,0,1,framed
5,zo9j0hsi,2021-03-15 10:12:10.857947+00:00,1,14,Don't Control,,0,0,0,1,3,1,7igvdhlu,1,15,153,0,0,1,14,0,"Bionengineering, B.Sc.",3,3,25-34,"Bolivia, Plurinational State of",0,0,1,framed
6,iyu7t1vc,2021-03-15 10:12:12.917261+00:00,2,28,,Don't Cheat,0,0,0,1,3,2,7igvdhlu,1,15,153,0,0,2,0,14,International Business and Social Siences,20,2,18-24,Germany,0,0,1,framed
5,zo9j0hsi,2021-03-15 10:12:10.857947+00:00,1,28,Don't Control,,0,0,0,1,3,2,7igvdhlu,1,15,153,0,0,1,14,0,"Bionengineering, B.Sc.",3,3,25-34,"Bolivia, Plurinational State of",0,0,1,framed
6,iyu7t1vc,2021-03-15 10:12:12.917261+00:00,2,42,,Don't Cheat,0,0,0,1,3,3,7igvdhlu,1,15,153,0,0,2,0,14,International Business and Social Siences,20,2,18-24,Germany,0,0,1,framed
5,zo9j0hsi,2021-03-15 10:12:10.857947+00:00,1,42,Don't Control,,0,0,0,1,3,3,7igvdhlu,1,15,153,0,0,1,14,0,"Bionengineering, B.Sc.",3,3,25-34,"Bolivia, Plurinational State of",0,0,1,framed
6,iyu7t1vc,2021-03-15 10:12:12.917261+00:00,2,58,,Cheat,0,1,1,0,3,4,7igvdhlu,1,15,153,0,1,2,0,16,International Business and Social Siences,20,2,18-24,Germany,1,0.25,1,framed
5,zo9j0hsi,2021-03-15 10:12:10.857947+00:00,1,45,Don't Control,,0,0,0,1,3,4,7igvdhlu,1,15,153,0,0,1,14,0,"Bionengineering, B.Sc.",3,3,25-34,"Bolivia, Plurinational State of",0,0,1,framed
6,iyu7t1vc,2021-03-15 10:12:12.917261+00:00,2,74,,Cheat,0,1,1,0,3,5,7igvdhlu,1,15,153,0,2,2,0,16,International Business and Social Siences,20,2,18-24,Germany,2,0.4,1,framed
5,zo9j0hsi,2021-03-15 10:12:10.857947+00:00,1,48,Don't Control,,0,0,0,1,3,5,7igvdhlu,1,15,153,0,0,1,14,0,"Bionengineering, B.Sc.",3,3,25-34,"Bolivia, Plurinational State of",0,0,1,framed
6,iyu7t1vc,2021-03-15 10:12:12.917261+00:00,2,90,,Cheat,0,1,1,0,3,6,7igvdhlu,1,15,153,0,3,2,0,16,International Business and Social Siences,20,2,18-24,Germany,3,0.5,1,framed
5,zo9j0hsi,2021-03-15 10:12:10.857947+00:00,1,51,Don't Control,,0,0,0,1,3,6,7igvdhlu,1,15,153,0,0,1,14,0,"Bionengineering, B.Sc.",3,3,25-34,"Bolivia, Plurinational State of",0,0,1,framed
6,iyu7t1vc,2021-03-15 10:12:12.917261+00:00,2,106,,Cheat,0,1,1,0,3,7,7igvdhlu,1,15,153,0,4,2,0,16,International Business and Social Siences,20,2,18-24,Germany,4,0.571428571,1,framed
5,zo9j0hsi,2021-03-15 10:12:10.857947+00:00,1,54,Don't Control,,0,0,0,1,3,7,7igvdhlu,1,15,153,0,0,1,14,0,"Bionengineering, B.Sc.",3,3,25-34,"Bolivia, Plurinational State of",0,0,1,framed
6,iyu7t1vc,2021-03-15 10:12:12.917261+00:00,2,122,,Cheat,0,1,1,0,3,8,7igvdhlu,1,15,153,0,5,2,0,16,International Business and Social Siences,20,2,18-24,Germany,5,0.625,1,framed
5,zo9j0hsi,2021-03-15 10:12:10.857947+00:00,1,57,Don't Control,,0,0,0,1,3,8,7igvdhlu,1,15,153,0,0,1,14,0,"Bionengineering, B.Sc.",3,3,25-34,"Bolivia, Plurinational State of",0,0,1,framed
6,iyu7t1vc,2021-03-15 10:12:12.917261+00:00,2,138,,Cheat,0,1,1,0,3,9,7igvdhlu,1,15,153,0,6,2,0,16,International Business and Social Siences,20,2,18-24,Germany,6,0.666666667,1,framed
5,zo9j0hsi,2021-03-15 10:12:10.857947+00:00,1,60,Don't Control,,0,0,0,1,3,9,7igvdhlu,1,15,153,0,0,1,14,0,"Bionengineering, B.Sc.",3,3,25-34,"Bolivia, Plurinational State of",0,0,1,framed
6,iyu7t1vc,2021-03-15 10:12:12.917261+00:00,2,154,,Cheat,0,1,1,0,3,10,7igvdhlu,1,15,153,0,7,2,0,16,International Business and Social Siences,20,2,18-24,Germany,7,0.7,1,framed
5,zo9j0hsi,2021-03-15 10:12:10.857947+00:00,1,63,Don't Control,,0,0,0,1,3,10,7igvdhlu,1,15,153,0,0,1,14,0,"Bionengineering, B.Sc.",3,3,25-34,"Bolivia, Plurinational State of",0,0,1,framed
6,iyu7t1vc,2021-03-15 10:12:12.917261+00:00,2,156,,Cheat,0,1,1,0,3,11,7igvdhlu,1,15,153,0,8,2,0,16,International Business and Social Siences,20,2,18-24,Germany,8,0.727272727,1,framed
5,zo9j0hsi,2021-03-15 10:12:10.857947+00:00,1,75,Control,,1,0,1,0,3,11,7igvdhlu,1,15,153,1,0,1,11,0,"Bionengineering, B.Sc.",3,3,25-34,"Bolivia, Plurinational State of",1,0.090909091,1,framed
6,iyu7t1vc,2021-03-15 10:12:12.917261+00:00,2,166,,Don't Cheat,0,0,0,1,3,12,7igvdhlu,1,15,153,0,8,2,0,14,International Business and Social Siences,20,2,18-24,Germany,8,0.666666667,1,framed
5,zo9j0hsi,2021-03-15 10:12:10.857947+00:00,1,86,Control,,1,0,1,0,3,12,7igvdhlu,1,15,153,2,0,1,11,0,"Bionengineering, B.Sc.",3,3,25-34,"Bolivia, Plurinational State of",2,0.166666667,1,framed
6,iyu7t1vc,2021-03-15 10:12:12.917261+00:00,2,180,,Don't Cheat,0,0,0,1,3,13,7igvdhlu,1,15,153,0,8,2,0,14,International Business and Social Siences,20,2,18-24,Germany,8,0.615384615,1,framed
5,zo9j0hsi,2021-03-15 10:12:10.857947+00:00,1,100,Don't Control,,0,0,0,1,3,13,7igvdhlu,1,15,153,2,0,1,14,0,"Bionengineering, B.Sc.",3,3,25-34,"Bolivia, Plurinational State of",2,0.153846154,1,framed
6,iyu7t1vc,2021-03-15 10:12:12.917261+00:00,2,194,,Don't Cheat,0,0,0,1,3,14,7igvdhlu,1,15,153,0,8,2,0,14,International Business and Social Siences,20,2,18-24,Germany,8,0.571428571,1,framed
5,zo9j0hsi,2021-03-15 10:12:10.857947+00:00,1,114,Don't Control,,0,0,0,1,3,14,7igvdhlu,1,15,153,2,0,1,14,0,"Bionengineering, B.Sc.",3,3,25-34,"Bolivia, Plurinational State of",2,0.142857143,1,framed
6,iyu7t1vc,2021-03-15 10:12:12.917261+00:00,2,210,,Cheat,0,1,1,0,3,15,7igvdhlu,1,15,153,0,9,2,0,16,International Business and Social Siences,20,2,18-24,Germany,9,0.6,1,framed
5,zo9j0hsi,2021-03-15 10:12:10.857947+00:00,1,117,Don't Control,,0,0,0,1,3,15,7igvdhlu,1,15,153,2,0,1,14,0,"Bionengineering, B.Sc.",3,3,25-34,"Bolivia, Plurinational State of",2,0.133333333,1,framed
6,iyu7t1vc,2021-03-15 10:12:12.917261+00:00,2,212,,Cheat,0,1,1,0,3,16,7igvdhlu,1,15,153,0,10,2,0,16,International Business and Social Siences,20,2,18-24,Germany,10,0.625,1,framed
5,zo9j0hsi,2021-03-15 10:12:10.857947+00:00,1,129,Control,,1,0,1,0,3,16,7igvdhlu,1,15,153,3,0,1,11,0,"Bionengineering, B.Sc.",3,3,25-34,"Bolivia, Plurinational State of",3,0.1875,1,framed
6,iyu7t1vc,2021-03-15 10:12:12.917261+00:00,2,214,,Cheat,0,1,1,0,3,17,7igvdhlu,1,15,153,0,11,2,0,16,International Business and Social Siences,20,2,18-24,Germany,11,0.647058824,1,framed
5,zo9j0hsi,2021-03-15 10:12:10.857947+00:00,1,141,Control,,1,0,1,0,3,17,7igvdhlu,1,15,153,4,0,1,11,0,"Bionengineering, B.Sc.",3,3,25-34,"Bolivia, Plurinational State of",4,0.235294118,1,framed
6,iyu7t1vc,2021-03-15 10:12:12.917261+00:00,2,224,,Don't Cheat,0,0,0,1,3,18,7igvdhlu,1,15,153,0,11,2,0,14,International Business and Social Siences,20,2,18-24,Germany,11,0.611111111,1,framed
5,zo9j0hsi,2021-03-15 10:12:10.857947+00:00,1,152,Control,,1,0,1,0,3,18,7igvdhlu,1,15,153,5,0,1,11,0,"Bionengineering, B.Sc.",3,3,25-34,"Bolivia, Plurinational State of",5,0.277777778,1,framed
6,iyu7t1vc,2021-03-15 10:12:12.917261+00:00,2,234,,Don't Cheat,0,0,0,1,3,19,7igvdhlu,1,15,153,0,11,2,0,14,International Business and Social Siences,20,2,18-24,Germany,11,0.578947368,1,framed
5,zo9j0hsi,2021-03-15 10:12:10.857947+00:00,1,163,Control,,1,0,1,0,3,19,7igvdhlu,1,15,153,6,0,1,11,0,"Bionengineering, B.Sc.",3,3,25-34,"Bolivia, Plurinational State of",6,0.315789474,1,framed
6,iyu7t1vc,2021-03-15 10:12:12.917261+00:00,2,244,,Don't Cheat,0,0,0,1,3,20,7igvdhlu,1,15,153,0,11,2,0,14,International Business and Social Siences,20,2,18-24,Germany,11,0.55,1,framed
5,zo9j0hsi,2021-03-15 10:12:10.857947+00:00,1,174,Control,,1,0,1,0,3,20,7igvdhlu,1,15,153,7,0,1,11,0,"Bionengineering, B.Sc.",3,3,25-34,"Bolivia, Plurinational State of",7,0.35,1,framed
6,iyu7t1vc,2021-03-15 10:12:12.917261+00:00,2,254,,Don't Cheat,0,0,0,1,3,21,7igvdhlu,1,15,153,0,11,2,0,14,International Business and Social Siences,20,2,18-24,Germany,11,0.523809524,1,framed
5,zo9j0hsi,2021-03-15 10:12:10.857947+00:00,1,185,Control,,1,0,1,0,3,21,7igvdhlu,1,15,153,8,0,1,11,0,"Bionengineering, B.Sc.",3,3,25-34,"Bolivia, Plurinational State of",8,0.380952381,1,framed
6,iyu7t1vc,2021-03-15 10:12:12.917261+00:00,2,264,,Don't Cheat,0,0,0,1,3,22,7igvdhlu,1,15,153,0,11,2,0,14,International Business and Social Siences,20,2,18-24,Germany,11,0.5,1,framed
5,zo9j0hsi,2021-03-15 10:12:10.857947+00:00,1,196,Control,,1,0,1,0,3,22,7igvdhlu,1,15,153,9,0,1,11,0,"Bionengineering, B.Sc.",3,3,25-34,"Bolivia, Plurinational State of",9,0.409090909,1,framed
6,iyu7t1vc,2021-03-15 10:12:12.917261+00:00,2,274,,Don't Cheat,0,0,0,1,3,23,7igvdhlu,1,15,153,0,11,2,0,14,International Business and Social Siences,20,2,18-24,Germany,11,0.47826087,1,framed
5,zo9j0hsi,2021-03-15 10:12:10.857947+00:00,1,207,Control,,1,0,1,0,3,23,7igvdhlu,1,15,153,10,0,1,11,0,"Bionengineering, B.Sc.",3,3,25-34,"Bolivia, Plurinational State of",10,0.434782609,1,framed
6,iyu7t1vc,2021-03-15 10:12:12.917261+00:00,2,288,,Don't Cheat,0,0,0,1,3,24,7igvdhlu,1,15,153,0,11,2,0,14,International Business and Social Siences,20,2,18-24,Germany,11,0.458333333,1,framed
5,zo9j0hsi,2021-03-15 10:12:10.857947+00:00,1,221,Don't Control,,0,0,0,1,3,24,7igvdhlu,1,15,153,10,0,1,14,0,"Bionengineering, B.Sc.",3,3,25-34,"Bolivia, Plurinational State of",10,0.416666667,1,framed
6,iyu7t1vc,2021-03-15 10:12:12.917261+00:00,2,298,,Don't Cheat,0,0,0,1,3,25,7igvdhlu,1,15,153,0,11,2,0,14,International Business and Social Siences,20,2,18-24,Germany,11,0.44,1,framed
5,zo9j0hsi,2021-03-15 10:12:10.857947+00:00,1,232,Control,,1,0,1,0,3,25,7igvdhlu,1,15,153,11,0,1,11,0,"Bionengineering, B.Sc.",3,3,25-34,"Bolivia, Plurinational State of",11,0.44,1,framed
6,iyu7t1vc,2021-03-15 10:12:12.917261+00:00,2,312,,Don't Cheat,0,0,0,1,3,26,7igvdhlu,1,15,153,0,11,2,0,14,International Business and Social Siences,20,2,18-24,Germany,11,0.423076923,1,framed
5,zo9j0hsi,2021-03-15 10:12:10.857947+00:00,1,246,Don't Control,,0,0,0,1,3,26,7igvdhlu,1,15,153,11,0,1,14,0,"Bionengineering, B.Sc.",3,3,25-34,"Bolivia, Plurinational State of",11,0.423076923,1,framed
6,iyu7t1vc,2021-03-15 10:12:12.917261+00:00,2,328,,Cheat,0,1,1,0,3,27,7igvdhlu,1,15,153,0,12,2,0,16,International Business and Social Siences,20,2,18-24,Germany,12,0.444444444,1,framed
5,zo9j0hsi,2021-03-15 10:12:10.857947+00:00,1,249,Don't Control,,0,0,0,1,3,27,7igvdhlu,1,15,153,11,0,1,14,0,"Bionengineering, B.Sc.",3,3,25-34,"Bolivia, Plurinational State of",11,0.407407407,1,framed
6,iyu7t1vc,2021-03-15 10:12:12.917261+00:00,2,330,,Cheat,0,1,1,0,3,28,7igvdhlu,1,15,153,0,13,2,0,16,International Business and Social Siences,20,2,18-24,Germany,13,0.464285714,1,framed
5,zo9j0hsi,2021-03-15 10:12:10.857947+00:00,1,261,Control,,1,0,1,0,3,28,7igvdhlu,1,15,153,12,0,1,11,0,"Bionengineering, B.Sc.",3,3,25-34,"Bolivia, Plurinational State of",12,0.428571429,1,framed
6,iyu7t1vc,2021-03-15 10:12:12.917261+00:00,2,340,,Don't Cheat,0,0,0,1,3,29,7igvdhlu,1,15,153,0,13,2,0,14,International Business and Social Siences,20,2,18-24,Germany,13,0.448275862,1,framed
5,zo9j0hsi,2021-03-15 10:12:10.857947+00:00,1,272,Control,,1,0,1,0,3,29,7igvdhlu,1,15,153,13,0,1,11,0,"Bionengineering, B.Sc.",3,3,25-34,"Bolivia, Plurinational State of",13,0.448275862,1,framed
6,iyu7t1vc,2021-03-15 10:12:12.917261+00:00,2,350,,Don't Cheat,0,0,0,1,3,30,7igvdhlu,1,15,153,0,13,2,0,14,International Business and Social Siences,20,2,18-24,Germany,13,0.433333333,1,framed
5,zo9j0hsi,2021-03-15 10:12:10.857947+00:00,1,283,Control,,1,0,1,0,3,30,7igvdhlu,1,15,153,14,0,1,11,0,"Bionengineering, B.Sc.",3,3,25-34,"Bolivia, Plurinational State of",14,0.466666667,1,framed
6,iyu7t1vc,2021-03-15 10:12:12.917261+00:00,2,360,,Don't Cheat,0,0,0,1,3,31,7igvdhlu,1,15,153,0,13,2,0,14,International Business and Social Siences,20,2,18-24,Germany,13,0.419354839,1,framed
5,zo9j0hsi,2021-03-15 10:12:10.857947+00:00,1,294,Control,,1,0,1,0,3,31,7igvdhlu,1,15,153,15,0,1,11,0,"Bionengineering, B.Sc.",3,3,25-34,"Bolivia, Plurinational State of",15,0.483870968,1,framed
6,iyu7t1vc,2021-03-15 10:12:12.917261+00:00,2,370,,Don't Cheat,0,0,0,1,3,32,7igvdhlu,1,15,153,0,13,2,0,14,International Business and Social Siences,20,2,18-24,Germany,13,0.40625,1,framed
5,zo9j0hsi,2021-03-15 10:12:10.857947+00:00,1,305,Control,,1,0,1,0,3,32,7igvdhlu,1,15,153,16,0,1,11,0,"Bionengineering, B.Sc.",3,3,25-34,"Bolivia, Plurinational State of",16,0.5,1,framed
6,iyu7t1vc,2021-03-15 10:12:12.917261+00:00,2,380,,Don't Cheat,0,0,0,1,3,33,7igvdhlu,1,15,153,0,13,2,0,14,International Business and Social Siences,20,2,18-24,Germany,13,0.393939394,1,framed
5,zo9j0hsi,2021-03-15 10:12:10.857947+00:00,1,316,Control,,1,0,1,0,3,33,7igvdhlu,1,15,153,17,0,1,11,0,"Bionengineering, B.Sc.",3,3,25-34,"Bolivia, Plurinational State of",17,0.515151515,1,framed
6,iyu7t1vc,2021-03-15 10:12:12.917261+00:00,2,390,,Don't Cheat,0,0,0,1,3,34,7igvdhlu,1,15,153,0,13,2,0,14,International Business and Social Siences,20,2,18-24,Germany,13,0.382352941,1,framed
5,zo9j0hsi,2021-03-15 10:12:10.857947+00:00,1,327,Control,,1,0,1,0,3,34,7igvdhlu,1,15,153,18,0,1,11,0,"Bionengineering, B.Sc.",3,3,25-34,"Bolivia, Plurinational State of",18,0.529411765,1,framed
6,iyu7t1vc,2021-03-15 10:12:12.917261+00:00,2,400,,Don't Cheat,0,0,0,1,3,35,7igvdhlu,1,15,153,0,13,2,0,14,International Business and Social Siences,20,2,18-24,Germany,13,0.371428571,1,framed
5,zo9j0hsi,2021-03-15 10:12:10.857947+00:00,1,338,Control,,1,0,1,0,3,35,7igvdhlu,1,15,153,19,0,1,11,0,"Bionengineering, B.Sc.",3,3,25-34,"Bolivia, Plurinational State of",19,0.542857143,1,framed
6,iyu7t1vc,2021-03-15 10:12:12.917261+00:00,2,414,,Don't Cheat,0,0,0,1,3,36,7igvdhlu,1,15,153,0,13,2,0,14,International Business and Social Siences,20,2,18-24,Germany,13,0.361111111,1,framed
5,zo9j0hsi,2021-03-15 10:12:10.857947+00:00,1,352,Don't Control,,0,0,0,1,3,36,7igvdhlu,1,15,153,19,0,1,14,0,"Bionengineering, B.Sc.",3,3,25-34,"Bolivia, Plurinational State of",19,0.527777778,1,framed
6,iyu7t1vc,2021-03-15 10:12:12.917261+00:00,2,416,,Cheat,0,1,1,0,3,37,7igvdhlu,1,15,153,0,14,2,0,16,International Business and Social Siences,20,2,18-24,Germany,14,0.378378378,1,framed
5,zo9j0hsi,2021-03-15 10:12:10.857947+00:00,1,364,Control,,1,0,1,0,3,37,7igvdhlu,1,15,153,20,0,1,11,0,"Bionengineering, B.Sc.",3,3,25-34,"Bolivia, Plurinational State of",20,0.540540541,1,framed
6,iyu7t1vc,2021-03-15 10:12:12.917261+00:00,2,418,,Cheat,0,1,1,0,3,38,7igvdhlu,1,15,153,0,15,2,0,16,International Business and Social Siences,20,2,18-24,Germany,15,0.394736842,1,framed
5,zo9j0hsi,2021-03-15 10:12:10.857947+00:00,1,376,Control,,1,0,1,0,3,38,7igvdhlu,1,15,153,21,0,1,11,0,"Bionengineering, B.Sc.",3,3,25-34,"Bolivia, Plurinational State of",21,0.552631579,1,framed
6,iyu7t1vc,2021-03-15 10:12:12.917261+00:00,2,428,,Don't Cheat,0,0,0,1,3,39,7igvdhlu,1,15,153,0,15,2,0,14,International Business and Social Siences,20,2,18-24,Germany,15,0.384615385,1,framed
5,zo9j0hsi,2021-03-15 10:12:10.857947+00:00,1,387,Control,,1,0,1,0,3,39,7igvdhlu,1,15,153,22,0,1,11,0,"Bionengineering, B.Sc.",3,3,25-34,"Bolivia, Plurinational State of",22,0.564102564,1,framed
6,iyu7t1vc,2021-03-15 10:12:12.917261+00:00,2,438,,Don't Cheat,0,0,0,1,3,40,7igvdhlu,1,15,153,0,15,2,0,14,International Business and Social Siences,20,2,18-24,Germany,15,0.375,1,framed
5,zo9j0hsi,2021-03-15 10:12:10.857947+00:00,1,398,Control,,1,0,1,0,3,40,7igvdhlu,1,15,153,23,0,1,11,0,"Bionengineering, B.Sc.",3,3,25-34,"Bolivia, Plurinational State of",23,0.575,1,framed
6,iyu7t1vc,2021-03-15 10:12:12.917261+00:00,2,448,,Don't Cheat,0,0,0,1,3,41,7igvdhlu,1,15,153,0,15,2,0,14,International Business and Social Siences,20,2,18-24,Germany,15,0.365853659,1,framed
5,zo9j0hsi,2021-03-15 10:12:10.857947+00:00,1,409,Control,,1,0,1,0,3,41,7igvdhlu,1,15,153,24,0,1,11,0,"Bionengineering, B.Sc.",3,3,25-34,"Bolivia, Plurinational State of",24,0.585365854,1,framed
6,iyu7t1vc,2021-03-15 10:12:12.917261+00:00,2,458,,Don't Cheat,0,0,0,1,3,42,7igvdhlu,1,15,153,0,15,2,0,14,International Business and Social Siences,20,2,18-24,Germany,15,0.357142857,1,framed
5,zo9j0hsi,2021-03-15 10:12:10.857947+00:00,1,420,Control,,1,0,1,0,3,42,7igvdhlu,1,15,153,25,0,1,11,0,"Bionengineering, B.Sc.",3,3,25-34,"Bolivia, Plurinational State of",25,0.595238095,1,framed
6,iyu7t1vc,2021-03-15 10:12:12.917261+00:00,2,472,,Don't Cheat,0,0,0,1,3,43,7igvdhlu,1,15,153,0,15,2,0,14,International Business and Social Siences,20,2,18-24,Germany,15,0.348837209,1,framed
5,zo9j0hsi,2021-03-15 10:12:10.857947+00:00,1,434,Don't Control,,0,0,0,1,3,43,7igvdhlu,1,15,153,25,0,1,14,0,"Bionengineering, B.Sc.",3,3,25-34,"Bolivia, Plurinational State of",25,0.581395349,1,framed
6,iyu7t1vc,2021-03-15 10:12:12.917261+00:00,2,482,,Don't Cheat,0,0,0,1,3,44,7igvdhlu,1,15,153,0,15,2,0,14,International Business and Social Siences,20,2,18-24,Germany,15,0.340909091,1,framed
5,zo9j0hsi,2021-03-15 10:12:10.857947+00:00,1,445,Control,,1,0,1,0,3,44,7igvdhlu,1,15,153,26,0,1,11,0,"Bionengineering, B.Sc.",3,3,25-34,"Bolivia, Plurinational State of",26,0.590909091,1,framed
6,iyu7t1vc,2021-03-15 10:12:12.917261+00:00,2,492,,Don't Cheat,0,0,0,1,3,45,7igvdhlu,1,15,153,0,15,2,0,14,International Business and Social Siences,20,2,18-24,Germany,15,0.333333333,1,framed
5,zo9j0hsi,2021-03-15 10:12:10.857947+00:00,1,456,Control,,1,0,1,0,3,45,7igvdhlu,1,15,153,27,0,1,11,0,"Bionengineering, B.Sc.",3,3,25-34,"Bolivia, Plurinational State of",27,0.6,1,framed
6,iyu7t1vc,2021-03-15 10:12:12.917261+00:00,2,502,,Don't Cheat,0,0,0,1,3,46,7igvdhlu,1,15,153,0,15,2,0,14,International Business and Social Siences,20,2,18-24,Germany,15,0.326086957,1,framed
5,zo9j0hsi,2021-03-15 10:12:10.857947+00:00,1,467,Control,,1,0,1,0,3,46,7igvdhlu,1,15,153,28,0,1,11,0,"Bionengineering, B.Sc.",3,3,25-34,"Bolivia, Plurinational State of",28,0.608695652,1,framed
6,iyu7t1vc,2021-03-15 10:12:12.917261+00:00,2,516,,Don't Cheat,0,0,0,1,3,47,7igvdhlu,1,15,153,0,15,2,0,14,International Business and Social Siences,20,2,18-24,Germany,15,0.319148936,1,framed
5,zo9j0hsi,2021-03-15 10:12:10.857947+00:00,1,481,Don't Control,,0,0,0,1,3,47,7igvdhlu,1,15,153,28,0,1,14,0,"Bionengineering, B.Sc.",3,3,25-34,"Bolivia, Plurinational State of",28,0.595744681,1,framed
6,iyu7t1vc,2021-03-15 10:12:12.917261+00:00,2,526,,Don't Cheat,0,0,0,1,3,48,7igvdhlu,1,15,153,0,15,2,0,14,International Business and Social Siences,20,2,18-24,Germany,15,0.3125,1,framed
5,zo9j0hsi,2021-03-15 10:12:10.857947+00:00,1,492,Control,,1,0,1,0,3,48,7igvdhlu,1,15,153,29,0,1,11,0,"Bionengineering, B.Sc.",3,3,25-34,"Bolivia, Plurinational State of",29,0.604166667,1,framed
6,iyu7t1vc,2021-03-15 10:12:12.917261+00:00,2,536,,Don't Cheat,0,0,0,1,3,49,7igvdhlu,1,15,153,0,15,2,0,14,International Business and Social Siences,20,2,18-24,Germany,15,0.306122449,1,framed
5,zo9j0hsi,2021-03-15 10:12:10.857947+00:00,1,503,Control,,1,0,1,0,3,49,7igvdhlu,1,15,153,30,0,1,11,0,"Bionengineering, B.Sc.",3,3,25-34,"Bolivia, Plurinational State of",30,0.612244898,1,framed
6,iyu7t1vc,2021-03-15 10:12:12.917261+00:00,2,550,,Don't Cheat,0,0,0,1,3,50,7igvdhlu,1,15,153,0,15,2,0,14,International Business and Social Siences,20,2,18-24,Germany,15,0.3,1,framed
5,zo9j0hsi,2021-03-15 10:12:10.857947+00:00,1,517,Don't Control,,0,0,0,1,3,50,7igvdhlu,1,15,153,30,0,1,14,0,"Bionengineering, B.Sc.",3,3,25-34,"Bolivia, Plurinational State of",30,0.6,1,framed
6,iyu7t1vc,2021-03-15 10:12:12.917261+00:00,2,552,,Cheat,0,1,1,0,3,51,7igvdhlu,1,15,153,0,16,2,0,16,International Business and Social Siences,20,2,18-24,Germany,16,0.31372549,1,framed
5,zo9j0hsi,2021-03-15 10:12:10.857947+00:00,1,529,Control,,1,0,1,0,3,51,7igvdhlu,1,15,153,31,0,1,11,0,"Bionengineering, B.Sc.",3,3,25-34,"Bolivia, Plurinational State of",31,0.607843137,1,framed
6,iyu7t1vc,2021-03-15 10:12:12.917261+00:00,2,554,,Cheat,0,1,1,0,3,52,7igvdhlu,1,15,153,0,17,2,0,16,International Business and Social Siences,20,2,18-24,Germany,17,0.326923077,1,framed
5,zo9j0hsi,2021-03-15 10:12:10.857947+00:00,1,541,Control,,1,0,1,0,3,52,7igvdhlu,1,15,153,32,0,1,11,0,"Bionengineering, B.Sc.",3,3,25-34,"Bolivia, Plurinational State of",32,0.615384615,1,framed
6,iyu7t1vc,2021-03-15 10:12:12.917261+00:00,2,556,,Cheat,0,1,1,0,3,53,7igvdhlu,1,15,153,0,18,2,0,16,International Business and Social Siences,20,2,18-24,Germany,18,0.339622642,1,framed
5,zo9j0hsi,2021-03-15 10:12:10.857947+00:00,1,553,Control,,1,0,1,0,3,53,7igvdhlu,1,15,153,33,0,1,11,0,"Bionengineering, B.Sc.",3,3,25-34,"Bolivia, Plurinational State of",33,0.622641509,1,framed
6,iyu7t1vc,2021-03-15 10:12:12.917261+00:00,2,566,,Don't Cheat,0,0,0,1,3,54,7igvdhlu,1,15,153,0,18,2,0,14,International Business and Social Siences,20,2,18-24,Germany,18,0.333333333,1,framed
5,zo9j0hsi,2021-03-15 10:12:10.857947+00:00,1,564,Control,,1,0,1,0,3,54,7igvdhlu,1,15,153,34,0,1,11,0,"Bionengineering, B.Sc.",3,3,25-34,"Bolivia, Plurinational State of",34,0.62962963,1,framed
6,iyu7t1vc,2021-03-15 10:12:12.917261+00:00,2,568,,Cheat,0,1,1,0,3,55,7igvdhlu,1,15,153,0,19,2,0,16,International Business and Social Siences,20,2,18-24,Germany,19,0.345454545,1,framed
5,zo9j0hsi,2021-03-15 10:12:10.857947+00:00,1,576,Control,,1,0,1,0,3,55,7igvdhlu,1,15,153,35,0,1,11,0,"Bionengineering, B.Sc.",3,3,25-34,"Bolivia, Plurinational State of",35,0.636363636,1,framed
6,iyu7t1vc,2021-03-15 10:12:12.917261+00:00,2,578,,Don't Cheat,0,0,0,1,3,56,7igvdhlu,1,15,153,0,19,2,0,14,International Business and Social Siences,20,2,18-24,Germany,19,0.339285714,1,framed
5,zo9j0hsi,2021-03-15 10:12:10.857947+00:00,1,587,Control,,1,0,1,0,3,56,7igvdhlu,1,15,153,36,0,1,11,0,"Bionengineering, B.Sc.",3,3,25-34,"Bolivia, Plurinational State of",36,0.642857143,1,framed
6,iyu7t1vc,2021-03-15 10:12:12.917261+00:00,2,580,,Cheat,0,1,1,0,3,57,7igvdhlu,1,15,153,0,20,2,0,16,International Business and Social Siences,20,2,18-24,Germany,20,0.350877193,1,framed
5,zo9j0hsi,2021-03-15 10:12:10.857947+00:00,1,599,Control,,1,0,1,0,3,57,7igvdhlu,1,15,153,37,0,1,11,0,"Bionengineering, B.Sc.",3,3,25-34,"Bolivia, Plurinational State of",37,0.649122807,1,framed
6,iyu7t1vc,2021-03-15 10:12:12.917261+00:00,2,582,,Cheat,0,1,1,0,3,58,7igvdhlu,1,15,153,0,21,2,0,16,International Business and Social Siences,20,2,18-24,Germany,21,0.362068966,1,framed
5,zo9j0hsi,2021-03-15 10:12:10.857947+00:00,1,611,Control,,1,0,1,0,3,58,7igvdhlu,1,15,153,38,0,1,11,0,"Bionengineering, B.Sc.",3,3,25-34,"Bolivia, Plurinational State of",38,0.655172414,1,framed
6,iyu7t1vc,2021-03-15 10:12:12.917261+00:00,2,592,,Don't Cheat,0,0,0,1,3,59,7igvdhlu,1,15,153,0,21,2,0,14,International Business and Social Siences,20,2,18-24,Germany,21,0.355932203,1,framed
5,zo9j0hsi,2021-03-15 10:12:10.857947+00:00,1,622,Control,,1,0,1,0,3,59,7igvdhlu,1,15,153,39,0,1,11,0,"Bionengineering, B.Sc.",3,3,25-34,"Bolivia, Plurinational State of",39,0.661016949,1,framed
6,iyu7t1vc,2021-03-15 10:12:12.917261+00:00,2,602,,Don't Cheat,0,0,0,1,3,60,7igvdhlu,1,15,153,0,21,2,0,14,International Business and Social Siences,20,2,18-24,Germany,21,0.35,1,framed
5,zo9j0hsi,2021-03-15 10:12:10.857947+00:00,1,633,Control,,1,0,1,0,3,60,7igvdhlu,1,15,153,40,0,1,11,0,"Bionengineering, B.Sc.",3,3,25-34,"Bolivia, Plurinational State of",40,0.666666667,1,framed
6,iyu7t1vc,2021-03-15 10:12:12.917261+00:00,2,612,,Don't Cheat,0,0,0,1,3,61,7igvdhlu,1,15,153,0,21,2,0,14,International Business and Social Siences,20,2,18-24,Germany,21,0.344262295,1,framed
5,zo9j0hsi,2021-03-15 10:12:10.857947+00:00,1,644,Control,,1,0,1,0,3,61,7igvdhlu,1,15,153,41,0,1,11,0,"Bionengineering, B.Sc.",3,3,25-34,"Bolivia, Plurinational State of",41,0.672131148,1,framed
6,iyu7t1vc,2021-03-15 10:12:12.917261+00:00,2,622,,Don't Cheat,0,0,0,1,3,62,7igvdhlu,1,15,153,0,21,2,0,14,International Business and Social Siences,20,2,18-24,Germany,21,0.338709677,1,framed
5,zo9j0hsi,2021-03-15 10:12:10.857947+00:00,1,655,Control,,1,0,1,0,3,62,7igvdhlu,1,15,153,42,0,1,11,0,"Bionengineering, B.Sc.",3,3,25-34,"Bolivia, Plurinational State of",42,0.677419355,1,framed
6,iyu7t1vc,2021-03-15 10:12:12.917261+00:00,2,638,,Cheat,0,1,1,0,3,63,7igvdhlu,1,15,153,0,22,2,0,16,International Business and Social Siences,20,2,18-24,Germany,22,0.349206349,1,framed
5,zo9j0hsi,2021-03-15 10:12:10.857947+00:00,1,658,Don't Control,,0,0,0,1,3,63,7igvdhlu,1,15,153,42,0,1,14,0,"Bionengineering, B.Sc.",3,3,25-34,"Bolivia, Plurinational State of",42,0.666666667,1,framed
6,iyu7t1vc,2021-03-15 10:12:12.917261+00:00,2,648,,Don't Cheat,0,0,0,1,3,64,7igvdhlu,1,15,153,0,22,2,0,14,International Business and Social Siences,20,2,18-24,Germany,22,0.34375,1,framed
5,zo9j0hsi,2021-03-15 10:12:10.857947+00:00,1,669,Control,,1,0,1,0,3,64,7igvdhlu,1,15,153,43,0,1,11,0,"Bionengineering, B.Sc.",3,3,25-34,"Bolivia, Plurinational State of",43,0.671875,1,framed
6,iyu7t1vc,2021-03-15 10:12:12.917261+00:00,2,662,,Don't Cheat,0,0,0,1,3,65,7igvdhlu,1,15,153,0,22,2,0,14,International Business and Social Siences,20,2,18-24,Germany,22,0.338461538,1,framed
5,zo9j0hsi,2021-03-15 10:12:10.857947+00:00,1,683,Don't Control,,0,0,0,1,3,65,7igvdhlu,1,15,153,43,0,1,14,0,"Bionengineering, B.Sc.",3,3,25-34,"Bolivia, Plurinational State of",43,0.661538462,1,framed
6,iyu7t1vc,2021-03-15 10:12:12.917261+00:00,2,664,,Cheat,0,1,1,0,3,66,7igvdhlu,1,15,153,0,23,2,0,16,International Business and Social Siences,20,2,18-24,Germany,23,0.348484848,1,framed
5,zo9j0hsi,2021-03-15 10:12:10.857947+00:00,1,695,Control,,1,0,1,0,3,66,7igvdhlu,1,15,153,44,0,1,11,0,"Bionengineering, B.Sc.",3,3,25-34,"Bolivia, Plurinational State of",44,0.666666667,1,framed
6,iyu7t1vc,2021-03-15 10:12:12.917261+00:00,2,674,,Don't Cheat,0,0,0,1,3,67,7igvdhlu,1,15,153,0,23,2,0,14,International Business and Social Siences,20,2,18-24,Germany,23,0.343283582,1,framed
5,zo9j0hsi,2021-03-15 10:12:10.857947+00:00,1,706,Control,,1,0,1,0,3,67,7igvdhlu,1,15,153,45,0,1,11,0,"Bionengineering, B.Sc.",3,3,25-34,"Bolivia, Plurinational State of",45,0.671641791,1,framed
6,iyu7t1vc,2021-03-15 10:12:12.917261+00:00,2,684,,Don't Cheat,0,0,0,1,3,68,7igvdhlu,1,15,153,0,23,2,0,14,International Business and Social Siences,20,2,18-24,Germany,23,0.338235294,1,framed
5,zo9j0hsi,2021-03-15 10:12:10.857947+00:00,1,717,Control,,1,0,1,0,3,68,7igvdhlu,1,15,153,46,0,1,11,0,"Bionengineering, B.Sc.",3,3,25-34,"Bolivia, Plurinational State of",46,0.676470588,1,framed
6,iyu7t1vc,2021-03-15 10:12:12.917261+00:00,2,700,,Cheat,0,1,1,0,3,69,7igvdhlu,1,15,153,0,24,2,0,16,International Business and Social Siences,20,2,18-24,Germany,24,0.347826087,1,framed
5,zo9j0hsi,2021-03-15 10:12:10.857947+00:00,1,720,Don't Control,,0,0,0,1,3,69,7igvdhlu,1,15,153,46,0,1,14,0,"Bionengineering, B.Sc.",3,3,25-34,"Bolivia, Plurinational State of",46,0.666666667,1,framed
6,iyu7t1vc,2021-03-15 10:12:12.917261+00:00,2,702,,Cheat,0,1,1,0,3,70,7igvdhlu,1,15,153,0,25,2,0,16,International Business and Social Siences,20,2,18-24,Germany,25,0.357142857,1,framed
5,zo9j0hsi,2021-03-15 10:12:10.857947+00:00,1,732,Control,,1,0,1,0,3,70,7igvdhlu,1,15,153,47,0,1,11,0,"Bionengineering, B.Sc.",3,3,25-34,"Bolivia, Plurinational State of",47,0.671428571,1,framed
7,3fmd8mik,2021-03-15 10:12:12.998267+00:00,1,14,Don't Control,,0,0,0,1,4,1,7igvdhlu,1,15,154,0,0,1,14,0,Geschichte,39,3,25-34,Germany,0,0,1,framed
8,qkypffhk,2021-03-15 10:12:13.165277+00:00,2,14,,Don't Cheat,0,0,0,1,4,1,7igvdhlu,1,15,154,0,0,1,0,14,International Business and Social Siences,20,2,18-24,Germany,0,0,1,framed
7,3fmd8mik,2021-03-15 10:12:12.998267+00:00,1,28,Don't Control,,0,0,0,1,4,2,7igvdhlu,1,15,154,0,0,1,14,0,Geschichte,39,3,25-34,Germany,0,0,1,framed
8,qkypffhk,2021-03-15 10:12:13.165277+00:00,2,28,,Don't Cheat,0,0,0,1,4,2,7igvdhlu,1,15,154,0,0,1,0,14,International Business and Social Siences,20,2,18-24,Germany,0,0,1,framed
7,3fmd8mik,2021-03-15 10:12:12.998267+00:00,1,42,Don't Control,,0,0,0,1,4,3,7igvdhlu,1,15,154,0,0,1,14,0,Geschichte,39,3,25-34,Germany,0,0,1,framed
8,qkypffhk,2021-03-15 10:12:13.165277+00:00,2,42,,Don't Cheat,0,0,0,1,4,3,7igvdhlu,1,15,154,0,0,1,0,14,International Business and Social Siences,20,2,18-24,Germany,0,0,1,framed
7,3fmd8mik,2021-03-15 10:12:12.998267+00:00,1,56,Don't Control,,0,0,0,1,4,4,7igvdhlu,1,15,154,0,0,1,14,0,Geschichte,39,3,25-34,Germany,0,0,1,framed
8,qkypffhk,2021-03-15 10:12:13.165277+00:00,2,56,,Don't Cheat,0,0,0,1,4,4,7igvdhlu,1,15,154,0,0,1,0,14,International Business and Social Siences,20,2,18-24,Germany,0,0,1,framed
7,3fmd8mik,2021-03-15 10:12:12.998267+00:00,1,70,Don't Control,,0,0,0,1,4,5,7igvdhlu,1,15,154,0,0,1,14,0,Geschichte,39,3,25-34,Germany,0,0,1,framed
8,qkypffhk,2021-03-15 10:12:13.165277+00:00,2,70,,Don't Cheat,0,0,0,1,4,5,7igvdhlu,1,15,154,0,0,1,0,14,International Business and Social Siences,20,2,18-24,Germany,0,0,1,framed
7,3fmd8mik,2021-03-15 10:12:12.998267+00:00,1,84,Don't Control,,0,0,0,1,4,6,7igvdhlu,1,15,154,0,0,1,14,0,Geschichte,39,3,25-34,Germany,0,0,1,framed
8,qkypffhk,2021-03-15 10:12:13.165277+00:00,2,84,,Don't Cheat,0,0,0,1,4,6,7igvdhlu,1,15,154,0,0,1,0,14,International Business and Social Siences,20,2,18-24,Germany,0,0,1,framed
7,3fmd8mik,2021-03-15 10:12:12.998267+00:00,1,98,Don't Control,,0,0,0,1,4,7,7igvdhlu,1,15,154,0,0,1,14,0,Geschichte,39,3,25-34,Germany,0,0,1,framed
8,qkypffhk,2021-03-15 10:12:13.165277+00:00,2,98,,Don't Cheat,0,0,0,1,4,7,7igvdhlu,1,15,154,0,0,1,0,14,International Business and Social Siences,20,2,18-24,Germany,0,0,1,framed
7,3fmd8mik,2021-03-15 10:12:12.998267+00:00,1,112,Don't Control,,0,0,0,1,4,8,7igvdhlu,1,15,154,0,0,1,14,0,Geschichte,39,3,25-34,Germany,0,0,1,framed
8,qkypffhk,2021-03-15 10:12:13.165277+00:00,2,112,,Don't Cheat,0,0,0,1,4,8,7igvdhlu,1,15,154,0,0,1,0,14,International Business and Social Siences,20,2,18-24,Germany,0,0,1,framed
7,3fmd8mik,2021-03-15 10:12:12.998267+00:00,1,126,Don't Control,,0,0,0,1,4,9,7igvdhlu,1,15,154,0,0,1,14,0,Geschichte,39,3,25-34,Germany,0,0,1,framed
8,qkypffhk,2021-03-15 10:12:13.165277+00:00,2,126,,Don't Cheat,0,0,0,1,4,9,7igvdhlu,1,15,154,0,0,1,0,14,International Business and Social Siences,20,2,18-24,Germany,0,0,1,framed
7,3fmd8mik,2021-03-15 10:12:12.998267+00:00,1,140,Don't Control,,0,0,0,1,4,10,7igvdhlu,1,15,154,0,0,1,14,0,Geschichte,39,3,25-34,Germany,0,0,1,framed
8,qkypffhk,2021-03-15 10:12:13.165277+00:00,2,140,,Don't Cheat,0,0,0,1,4,10,7igvdhlu,1,15,154,0,0,1,0,14,International Business and Social Siences,20,2,18-24,Germany,0,0,1,framed
7,3fmd8mik,2021-03-15 10:12:12.998267+00:00,1,154,Don't Control,,0,0,0,1,4,11,7igvdhlu,1,15,154,0,0,1,14,0,Geschichte,39,3,25-34,Germany,0,0,1,framed
8,qkypffhk,2021-03-15 10:12:13.165277+00:00,2,154,,Don't Cheat,0,0,0,1,4,11,7igvdhlu,1,15,154,0,0,1,0,14,International Business and Social Siences,20,2,18-24,Germany,0,0,1,framed
7,3fmd8mik,2021-03-15 10:12:12.998267+00:00,1,168,Don't Control,,0,0,0,1,4,12,7igvdhlu,1,15,154,0,0,1,14,0,Geschichte,39,3,25-34,Germany,0,0,1,framed
8,qkypffhk,2021-03-15 10:12:13.165277+00:00,2,168,,Don't Cheat,0,0,0,1,4,12,7igvdhlu,1,15,154,0,0,1,0,14,International Business and Social Siences,20,2,18-24,Germany,0,0,1,framed
7,3fmd8mik,2021-03-15 10:12:12.998267+00:00,1,182,Don't Control,,0,0,0,1,4,13,7igvdhlu,1,15,154,0,0,1,14,0,Geschichte,39,3,25-34,Germany,0,0,1,framed
8,qkypffhk,2021-03-15 10:12:13.165277+00:00,2,182,,Don't Cheat,0,0,0,1,4,13,7igvdhlu,1,15,154,0,0,1,0,14,International Business and Social Siences,20,2,18-24,Germany,0,0,1,framed
7,3fmd8mik,2021-03-15 10:12:12.998267+00:00,1,196,Don't Control,,0,0,0,1,4,14,7igvdhlu,1,15,154,0,0,1,14,0,Geschichte,39,3,25-34,Germany,0,0,1,framed
8,qkypffhk,2021-03-15 10:12:13.165277+00:00,2,196,,Don't Cheat,0,0,0,1,4,14,7igvdhlu,1,15,154,0,0,1,0,14,International Business and Social Siences,20,2,18-24,Germany,0,0,1,framed
7,3fmd8mik,2021-03-15 10:12:12.998267+00:00,1,210,Don't Control,,0,0,0,1,4,15,7igvdhlu,1,15,154,0,0,1,14,0,Geschichte,39,3,25-34,Germany,0,0,1,framed
8,qkypffhk,2021-03-15 10:12:13.165277+00:00,2,210,,Don't Cheat,0,0,0,1,4,15,7igvdhlu,1,15,154,0,0,1,0,14,International Business and Social Siences,20,2,18-24,Germany,0,0,1,framed
7,3fmd8mik,2021-03-15 10:12:12.998267+00:00,1,224,Don't Control,,0,0,0,1,4,16,7igvdhlu,1,15,154,0,0,1,14,0,Geschichte,39,3,25-34,Germany,0,0,1,framed
8,qkypffhk,2021-03-15 10:12:13.165277+00:00,2,224,,Don't Cheat,0,0,0,1,4,16,7igvdhlu,1,15,154,0,0,1,0,14,International Business and Social Siences,20,2,18-24,Germany,0,0,1,framed
7,3fmd8mik,2021-03-15 10:12:12.998267+00:00,1,238,Don't Control,,0,0,0,1,4,17,7igvdhlu,1,15,154,0,0,1,14,0,Geschichte,39,3,25-34,Germany,0,0,1,framed
8,qkypffhk,2021-03-15 10:12:13.165277+00:00,2,238,,Don't Cheat,0,0,0,1,4,17,7igvdhlu,1,15,154,0,0,1,0,14,International Business and Social Siences,20,2,18-24,Germany,0,0,1,framed
7,3fmd8mik,2021-03-15 10:12:12.998267+00:00,1,252,Don't Control,,0,0,0,1,4,18,7igvdhlu,1,15,154,0,0,1,14,0,Geschichte,39,3,25-34,Germany,0,0,1,framed
8,qkypffhk,2021-03-15 10:12:13.165277+00:00,2,252,,Don't Cheat,0,0,0,1,4,18,7igvdhlu,1,15,154,0,0,1,0,14,International Business and Social Siences,20,2,18-24,Germany,0,0,1,framed
7,3fmd8mik,2021-03-15 10:12:12.998267+00:00,1,266,Don't Control,,0,0,0,1,4,19,7igvdhlu,1,15,154,0,0,1,14,0,Geschichte,39,3,25-34,Germany,0,0,1,framed
8,qkypffhk,2021-03-15 10:12:13.165277+00:00,2,266,,Don't Cheat,0,0,0,1,4,19,7igvdhlu,1,15,154,0,0,1,0,14,International Business and Social Siences,20,2,18-24,Germany,0,0,1,framed
7,3fmd8mik,2021-03-15 10:12:12.998267+00:00,1,280,Don't Control,,0,0,0,1,4,20,7igvdhlu,1,15,154,0,0,1,14,0,Geschichte,39,3,25-34,Germany,0,0,1,framed
8,qkypffhk,2021-03-15 10:12:13.165277+00:00,2,280,,Don't Cheat,0,0,0,1,4,20,7igvdhlu,1,15,154,0,0,1,0,14,International Business and Social Siences,20,2,18-24,Germany,0,0,1,framed
7,3fmd8mik,2021-03-15 10:12:12.998267+00:00,1,294,Don't Control,,0,0,0,1,4,21,7igvdhlu,1,15,154,0,0,1,14,0,Geschichte,39,3,25-34,Germany,0,0,1,framed
8,qkypffhk,2021-03-15 10:12:13.165277+00:00,2,294,,Don't Cheat,0,0,0,1,4,21,7igvdhlu,1,15,154,0,0,1,0,14,International Business and Social Siences,20,2,18-24,Germany,0,0,1,framed
7,3fmd8mik,2021-03-15 10:12:12.998267+00:00,1,308,Don't Control,,0,0,0,1,4,22,7igvdhlu,1,15,154,0,0,1,14,0,Geschichte,39,3,25-34,Germany,0,0,1,framed
8,qkypffhk,2021-03-15 10:12:13.165277+00:00,2,308,,Don't Cheat,0,0,0,1,4,22,7igvdhlu,1,15,154,0,0,1,0,14,International Business and Social Siences,20,2,18-24,Germany,0,0,1,framed
7,3fmd8mik,2021-03-15 10:12:12.998267+00:00,1,322,Don't Control,,0,0,0,1,4,23,7igvdhlu,1,15,154,0,0,1,14,0,Geschichte,39,3,25-34,Germany,0,0,1,framed
8,qkypffhk,2021-03-15 10:12:13.165277+00:00,2,322,,Don't Cheat,0,0,0,1,4,23,7igvdhlu,1,15,154,0,0,1,0,14,International Business and Social Siences,20,2,18-24,Germany,0,0,1,framed
7,3fmd8mik,2021-03-15 10:12:12.998267+00:00,1,336,Don't Control,,0,0,0,1,4,24,7igvdhlu,1,15,154,0,0,1,14,0,Geschichte,39,3,25-34,Germany,0,0,1,framed
8,qkypffhk,2021-03-15 10:12:13.165277+00:00,2,336,,Don't Cheat,0,0,0,1,4,24,7igvdhlu,1,15,154,0,0,1,0,14,International Business and Social Siences,20,2,18-24,Germany,0,0,1,framed
7,3fmd8mik,2021-03-15 10:12:12.998267+00:00,1,350,Don't Control,,0,0,0,1,4,25,7igvdhlu,1,15,154,0,0,1,14,0,Geschichte,39,3,25-34,Germany,0,0,1,framed
8,qkypffhk,2021-03-15 10:12:13.165277+00:00,2,350,,Don't Cheat,0,0,0,1,4,25,7igvdhlu,1,15,154,0,0,1,0,14,International Business and Social Siences,20,2,18-24,Germany,0,0,1,framed
7,3fmd8mik,2021-03-15 10:12:12.998267+00:00,1,364,Don't Control,,0,0,0,1,4,26,7igvdhlu,1,15,154,0,0,1,14,0,Geschichte,39,3,25-34,Germany,0,0,1,framed
8,qkypffhk,2021-03-15 10:12:13.165277+00:00,2,364,,Don't Cheat,0,0,0,1,4,26,7igvdhlu,1,15,154,0,0,1,0,14,International Business and Social Siences,20,2,18-24,Germany,0,0,1,framed
7,3fmd8mik,2021-03-15 10:12:12.998267+00:00,1,378,Don't Control,,0,0,0,1,4,27,7igvdhlu,1,15,154,0,0,1,14,0,Geschichte,39,3,25-34,Germany,0,0,1,framed
8,qkypffhk,2021-03-15 10:12:13.165277+00:00,2,378,,Don't Cheat,0,0,0,1,4,27,7igvdhlu,1,15,154,0,0,1,0,14,International Business and Social Siences,20,2,18-24,Germany,0,0,1,framed
7,3fmd8mik,2021-03-15 10:12:12.998267+00:00,1,392,Don't Control,,0,0,0,1,4,28,7igvdhlu,1,15,154,0,0,1,14,0,Geschichte,39,3,25-34,Germany,0,0,1,framed
8,qkypffhk,2021-03-15 10:12:13.165277+00:00,2,392,,Don't Cheat,0,0,0,1,4,28,7igvdhlu,1,15,154,0,0,1,0,14,International Business and Social Siences,20,2,18-24,Germany,0,0,1,framed
7,3fmd8mik,2021-03-15 10:12:12.998267+00:00,1,406,Don't Control,,0,0,0,1,4,29,7igvdhlu,1,15,154,0,0,1,14,0,Geschichte,39,3,25-34,Germany,0,0,1,framed
8,qkypffhk,2021-03-15 10:12:13.165277+00:00,2,406,,Don't Cheat,0,0,0,1,4,29,7igvdhlu,1,15,154,0,0,1,0,14,International Business and Social Siences,20,2,18-24,Germany,0,0,1,framed
7,3fmd8mik,2021-03-15 10:12:12.998267+00:00,1,420,Don't Control,,0,0,0,1,4,30,7igvdhlu,1,15,154,0,0,1,14,0,Geschichte,39,3,25-34,Germany,0,0,1,framed
8,qkypffhk,2021-03-15 10:12:13.165277+00:00,2,420,,Don't Cheat,0,0,0,1,4,30,7igvdhlu,1,15,154,0,0,1,0,14,International Business and Social Siences,20,2,18-24,Germany,0,0,1,framed
7,3fmd8mik,2021-03-15 10:12:12.998267+00:00,1,434,Don't Control,,0,0,0,1,4,31,7igvdhlu,1,15,154,0,0,1,14,0,Geschichte,39,3,25-34,Germany,0,0,1,framed
8,qkypffhk,2021-03-15 10:12:13.165277+00:00,2,434,,Don't Cheat,0,0,0,1,4,31,7igvdhlu,1,15,154,0,0,1,0,14,International Business and Social Siences,20,2,18-24,Germany,0,0,1,framed
7,3fmd8mik,2021-03-15 10:12:12.998267+00:00,1,448,Don't Control,,0,0,0,1,4,32,7igvdhlu,1,15,154,0,0,1,14,0,Geschichte,39,3,25-34,Germany,0,0,1,framed
8,qkypffhk,2021-03-15 10:12:13.165277+00:00,2,448,,Don't Cheat,0,0,0,1,4,32,7igvdhlu,1,15,154,0,0,1,0,14,International Business and Social Siences,20,2,18-24,Germany,0,0,1,framed
7,3fmd8mik,2021-03-15 10:12:12.998267+00:00,1,462,Don't Control,,0,0,0,1,4,33,7igvdhlu,1,15,154,0,0,1,14,0,Geschichte,39,3,25-34,Germany,0,0,1,framed
8,qkypffhk,2021-03-15 10:12:13.165277+00:00,2,462,,Don't Cheat,0,0,0,1,4,33,7igvdhlu,1,15,154,0,0,1,0,14,International Business and Social Siences,20,2,18-24,Germany,0,0,1,framed
7,3fmd8mik,2021-03-15 10:12:12.998267+00:00,1,476,Don't Control,,0,0,0,1,4,34,7igvdhlu,1,15,154,0,0,1,14,0,Geschichte,39,3,25-34,Germany,0,0,1,framed
8,qkypffhk,2021-03-15 10:12:13.165277+00:00,2,476,,Don't Cheat,0,0,0,1,4,34,7igvdhlu,1,15,154,0,0,1,0,14,International Business and Social Siences,20,2,18-24,Germany,0,0,1,framed
7,3fmd8mik,2021-03-15 10:12:12.998267+00:00,1,490,Don't Control,,0,0,0,1,4,35,7igvdhlu,1,15,154,0,0,1,14,0,Geschichte,39,3,25-34,Germany,0,0,1,framed
8,qkypffhk,2021-03-15 10:12:13.165277+00:00,2,490,,Don't Cheat,0,0,0,1,4,35,7igvdhlu,1,15,154,0,0,1,0,14,International Business and Social Siences,20,2,18-24,Germany,0,0,1,framed
7,3fmd8mik,2021-03-15 10:12:12.998267+00:00,1,504,Don't Control,,0,0,0,1,4,36,7igvdhlu,1,15,154,0,0,1,14,0,Geschichte,39,3,25-34,Germany,0,0,1,framed
8,qkypffhk,2021-03-15 10:12:13.165277+00:00,2,504,,Don't Cheat,0,0,0,1,4,36,7igvdhlu,1,15,154,0,0,1,0,14,International Business and Social Siences,20,2,18-24,Germany,0,0,1,framed
7,3fmd8mik,2021-03-15 10:12:12.998267+00:00,1,518,Don't Control,,0,0,0,1,4,37,7igvdhlu,1,15,154,0,0,1,14,0,Geschichte,39,3,25-34,Germany,0,0,1,framed
8,qkypffhk,2021-03-15 10:12:13.165277+00:00,2,518,,Don't Cheat,0,0,0,1,4,37,7igvdhlu,1,15,154,0,0,1,0,14,International Business and Social Siences,20,2,18-24,Germany,0,0,1,framed
7,3fmd8mik,2021-03-15 10:12:12.998267+00:00,1,532,Don't Control,,0,0,0,1,4,38,7igvdhlu,1,15,154,0,0,1,14,0,Geschichte,39,3,25-34,Germany,0,0,1,framed
8,qkypffhk,2021-03-15 10:12:13.165277+00:00,2,532,,Don't Cheat,0,0,0,1,4,38,7igvdhlu,1,15,154,0,0,1,0,14,International Business and Social Siences,20,2,18-24,Germany,0,0,1,framed
7,3fmd8mik,2021-03-15 10:12:12.998267+00:00,1,546,Don't Control,,0,0,0,1,4,39,7igvdhlu,1,15,154,0,0,1,14,0,Geschichte,39,3,25-34,Germany,0,0,1,framed
8,qkypffhk,2021-03-15 10:12:13.165277+00:00,2,546,,Don't Cheat,0,0,0,1,4,39,7igvdhlu,1,15,154,0,0,1,0,14,International Business and Social Siences,20,2,18-24,Germany,0,0,1,framed
7,3fmd8mik,2021-03-15 10:12:12.998267+00:00,1,560,Don't Control,,0,0,0,1,4,40,7igvdhlu,1,15,154,0,0,1,14,0,Geschichte,39,3,25-34,Germany,0,0,1,framed
8,qkypffhk,2021-03-15 10:12:13.165277+00:00,2,560,,Don't Cheat,0,0,0,1,4,40,7igvdhlu,1,15,154,0,0,1,0,14,International Business and Social Siences,20,2,18-24,Germany,0,0,1,framed
7,3fmd8mik,2021-03-15 10:12:12.998267+00:00,1,574,Don't Control,,0,0,0,1,4,41,7igvdhlu,1,15,154,0,0,1,14,0,Geschichte,39,3,25-34,Germany,0,0,1,framed
8,qkypffhk,2021-03-15 10:12:13.165277+00:00,2,574,,Don't Cheat,0,0,0,1,4,41,7igvdhlu,1,15,154,0,0,1,0,14,International Business and Social Siences,20,2,18-24,Germany,0,0,1,framed
7,3fmd8mik,2021-03-15 10:12:12.998267+00:00,1,588,Don't Control,,0,0,0,1,4,42,7igvdhlu,1,15,154,0,0,1,14,0,Geschichte,39,3,25-34,Germany,0,0,1,framed
8,qkypffhk,2021-03-15 10:12:13.165277+00:00,2,588,,Don't Cheat,0,0,0,1,4,42,7igvdhlu,1,15,154,0,0,1,0,14,International Business and Social Siences,20,2,18-24,Germany,0,0,1,framed
7,3fmd8mik,2021-03-15 10:12:12.998267+00:00,1,602,Don't Control,,0,0,0,1,4,43,7igvdhlu,1,15,154,0,0,1,14,0,Geschichte,39,3,25-34,Germany,0,0,1,framed
8,qkypffhk,2021-03-15 10:12:13.165277+00:00,2,602,,Don't Cheat,0,0,0,1,4,43,7igvdhlu,1,15,154,0,0,1,0,14,International Business and Social Siences,20,2,18-24,Germany,0,0,1,framed
7,3fmd8mik,2021-03-15 10:12:12.998267+00:00,1,616,Don't Control,,0,0,0,1,4,44,7igvdhlu,1,15,154,0,0,1,14,0,Geschichte,39,3,25-34,Germany,0,0,1,framed
8,qkypffhk,2021-03-15 10:12:13.165277+00:00,2,616,,Don't Cheat,0,0,0,1,4,44,7igvdhlu,1,15,154,0,0,1,0,14,International Business and Social Siences,20,2,18-24,Germany,0,0,1,framed
7,3fmd8mik,2021-03-15 10:12:12.998267+00:00,1,630,Don't Control,,0,0,0,1,4,45,7igvdhlu,1,15,154,0,0,1,14,0,Geschichte,39,3,25-34,Germany,0,0,1,framed
8,qkypffhk,2021-03-15 10:12:13.165277+00:00,2,630,,Don't Cheat,0,0,0,1,4,45,7igvdhlu,1,15,154,0,0,1,0,14,International Business and Social Siences,20,2,18-24,Germany,0,0,1,framed
7,3fmd8mik,2021-03-15 10:12:12.998267+00:00,1,644,Don't Control,,0,0,0,1,4,46,7igvdhlu,1,15,154,0,0,1,14,0,Geschichte,39,3,25-34,Germany,0,0,1,framed
8,qkypffhk,2021-03-15 10:12:13.165277+00:00,2,644,,Don't Cheat,0,0,0,1,4,46,7igvdhlu,1,15,154,0,0,1,0,14,International Business and Social Siences,20,2,18-24,Germany,0,0,1,framed
7,3fmd8mik,2021-03-15 10:12:12.998267+00:00,1,658,Don't Control,,0,0,0,1,4,47,7igvdhlu,1,15,154,0,0,1,14,0,Geschichte,39,3,25-34,Germany,0,0,1,framed
8,qkypffhk,2021-03-15 10:12:13.165277+00:00,2,658,,Don't Cheat,0,0,0,1,4,47,7igvdhlu,1,15,154,0,0,1,0,14,International Business and Social Siences,20,2,18-24,Germany,0,0,1,framed
7,3fmd8mik,2021-03-15 10:12:12.998267+00:00,1,672,Don't Control,,0,0,0,1,4,48,7igvdhlu,1,15,154,0,0,1,14,0,Geschichte,39,3,25-34,Germany,0,0,1,framed
8,qkypffhk,2021-03-15 10:12:13.165277+00:00,2,672,,Don't Cheat,0,0,0,1,4,48,7igvdhlu,1,15,154,0,0,1,0,14,International Business and Social Siences,20,2,18-24,Germany,0,0,1,framed
7,3fmd8mik,2021-03-15 10:12:12.998267+00:00,1,686,Don't Control,,0,0,0,1,4,49,7igvdhlu,1,15,154,0,0,1,14,0,Geschichte,39,3,25-34,Germany,0,0,1,framed
8,qkypffhk,2021-03-15 10:12:13.165277+00:00,2,686,,Don't Cheat,0,0,0,1,4,49,7igvdhlu,1,15,154,0,0,1,0,14,International Business and Social Siences,20,2,18-24,Germany,0,0,1,framed
7,3fmd8mik,2021-03-15 10:12:12.998267+00:00,1,700,Don't Control,,0,0,0,1,4,50,7igvdhlu,1,15,154,0,0,1,14,0,Geschichte,39,3,25-34,Germany,0,0,1,framed
8,qkypffhk,2021-03-15 10:12:13.165277+00:00,2,700,,Don't Cheat,0,0,0,1,4,50,7igvdhlu,1,15,154,0,0,1,0,14,International Business and Social Siences,20,2,18-24,Germany,0,0,1,framed
7,3fmd8mik,2021-03-15 10:12:12.998267+00:00,1,714,Don't Control,,0,0,0,1,4,51,7igvdhlu,1,15,154,0,0,1,14,0,Geschichte,39,3,25-34,Germany,0,0,1,framed
8,qkypffhk,2021-03-15 10:12:13.165277+00:00,2,714,,Don't Cheat,0,0,0,1,4,51,7igvdhlu,1,15,154,0,0,1,0,14,International Business and Social Siences,20,2,18-24,Germany,0,0,1,framed
7,3fmd8mik,2021-03-15 10:12:12.998267+00:00,1,728,Don't Control,,0,0,0,1,4,52,7igvdhlu,1,15,154,0,0,1,14,0,Geschichte,39,3,25-34,Germany,0,0,1,framed
8,qkypffhk,2021-03-15 10:12:13.165277+00:00,2,728,,Don't Cheat,0,0,0,1,4,52,7igvdhlu,1,15,154,0,0,1,0,14,International Business and Social Siences,20,2,18-24,Germany,0,0,1,framed
7,3fmd8mik,2021-03-15 10:12:12.998267+00:00,1,742,Don't Control,,0,0,0,1,4,53,7igvdhlu,1,15,154,0,0,1,14,0,Geschichte,39,3,25-34,Germany,0,0,1,framed
8,qkypffhk,2021-03-15 10:12:13.165277+00:00,2,742,,Don't Cheat,0,0,0,1,4,53,7igvdhlu,1,15,154,0,0,1,0,14,International Business and Social Siences,20,2,18-24,Germany,0,0,1,framed
7,3fmd8mik,2021-03-15 10:12:12.998267+00:00,1,756,Don't Control,,0,0,0,1,4,54,7igvdhlu,1,15,154,0,0,1,14,0,Geschichte,39,3,25-34,Germany,0,0,1,framed
8,qkypffhk,2021-03-15 10:12:13.165277+00:00,2,756,,Don't Cheat,0,0,0,1,4,54,7igvdhlu,1,15,154,0,0,1,0,14,International Business and Social Siences,20,2,18-24,Germany,0,0,1,framed
7,3fmd8mik,2021-03-15 10:12:12.998267+00:00,1,770,Don't Control,,0,0,0,1,4,55,7igvdhlu,1,15,154,0,0,1,14,0,Geschichte,39,3,25-34,Germany,0,0,1,framed
8,qkypffhk,2021-03-15 10:12:13.165277+00:00,2,770,,Don't Cheat,0,0,0,1,4,55,7igvdhlu,1,15,154,0,0,1,0,14,International Business and Social Siences,20,2,18-24,Germany,0,0,1,framed
7,3fmd8mik,2021-03-15 10:12:12.998267+00:00,1,784,Don't Control,,0,0,0,1,4,56,7igvdhlu,1,15,154,0,0,1,14,0,Geschichte,39,3,25-34,Germany,0,0,1,framed
8,qkypffhk,2021-03-15 10:12:13.165277+00:00,2,784,,Don't Cheat,0,0,0,1,4,56,7igvdhlu,1,15,154,0,0,1,0,14,International Business and Social Siences,20,2,18-24,Germany,0,0,1,framed
7,3fmd8mik,2021-03-15 10:12:12.998267+00:00,1,798,Don't Control,,0,0,0,1,4,57,7igvdhlu,1,15,154,0,0,1,14,0,Geschichte,39,3,25-34,Germany,0,0,1,framed
8,qkypffhk,2021-03-15 10:12:13.165277+00:00,2,798,,Don't Cheat,0,0,0,1,4,57,7igvdhlu,1,15,154,0,0,1,0,14,International Business and Social Siences,20,2,18-24,Germany,0,0,1,framed
7,3fmd8mik,2021-03-15 10:12:12.998267+00:00,1,812,Don't Control,,0,0,0,1,4,58,7igvdhlu,1,15,154,0,0,1,14,0,Geschichte,39,3,25-34,Germany,0,0,1,framed
8,qkypffhk,2021-03-15 10:12:13.165277+00:00,2,812,,Don't Cheat,0,0,0,1,4,58,7igvdhlu,1,15,154,0,0,1,0,14,International Business and Social Siences,20,2,18-24,Germany,0,0,1,framed
7,3fmd8mik,2021-03-15 10:12:12.998267+00:00,1,826,Don't Control,,0,0,0,1,4,59,7igvdhlu,1,15,154,0,0,1,14,0,Geschichte,39,3,25-34,Germany,0,0,1,framed
8,qkypffhk,2021-03-15 10:12:13.165277+00:00,2,826,,Don't Cheat,0,0,0,1,4,59,7igvdhlu,1,15,154,0,0,1,0,14,International Business and Social Siences,20,2,18-24,Germany,0,0,1,framed
7,3fmd8mik,2021-03-15 10:12:12.998267+00:00,1,840,Don't Control,,0,0,0,1,4,60,7igvdhlu,1,15,154,0,0,1,14,0,Geschichte,39,3,25-34,Germany,0,0,1,framed
8,qkypffhk,2021-03-15 10:12:13.165277+00:00,2,840,,Don't Cheat,0,0,0,1,4,60,7igvdhlu,1,15,154,0,0,1,0,14,International Business and Social Siences,20,2,18-24,Germany,0,0,1,framed
7,3fmd8mik,2021-03-15 10:12:12.998267+00:00,1,854,Don't Control,,0,0,0,1,4,61,7igvdhlu,1,15,154,0,0,1,14,0,Geschichte,39,3,25-34,Germany,0,0,1,framed
8,qkypffhk,2021-03-15 10:12:13.165277+00:00,2,854,,Don't Cheat,0,0,0,1,4,61,7igvdhlu,1,15,154,0,0,1,0,14,International Business and Social Siences,20,2,18-24,Germany,0,0,1,framed
7,3fmd8mik,2021-03-15 10:12:12.998267+00:00,1,868,Don't Control,,0,0,0,1,4,62,7igvdhlu,1,15,154,0,0,1,14,0,Geschichte,39,3,25-34,Germany,0,0,1,framed
8,qkypffhk,2021-03-15 10:12:13.165277+00:00,2,868,,Don't Cheat,0,0,0,1,4,62,7igvdhlu,1,15,154,0,0,1,0,14,International Business and Social Siences,20,2,18-24,Germany,0,0,1,framed
7,3fmd8mik,2021-03-15 10:12:12.998267+00:00,1,882,Don't Control,,0,0,0,1,4,63,7igvdhlu,1,15,154,0,0,1,14,0,Geschichte,39,3,25-34,Germany,0,0,1,framed
8,qkypffhk,2021-03-15 10:12:13.165277+00:00,2,882,,Don't Cheat,0,0,0,1,4,63,7igvdhlu,1,15,154,0,0,1,0,14,International Business and Social Siences,20,2,18-24,Germany,0,0,1,framed
7,3fmd8mik,2021-03-15 10:12:12.998267+00:00,1,896,Don't Control,,0,0,0,1,4,64,7igvdhlu,1,15,154,0,0,1,14,0,Geschichte,39,3,25-34,Germany,0,0,1,framed
8,qkypffhk,2021-03-15 10:12:13.165277+00:00,2,896,,Don't Cheat,0,0,0,1,4,64,7igvdhlu,1,15,154,0,0,1,0,14,International Business and Social Siences,20,2,18-24,Germany,0,0,1,framed
7,3fmd8mik,2021-03-15 10:12:12.998267+00:00,1,910,Don't Control,,0,0,0,1,4,65,7igvdhlu,1,15,154,0,0,1,14,0,Geschichte,39,3,25-34,Germany,0,0,1,framed
8,qkypffhk,2021-03-15 10:12:13.165277+00:00,2,910,,Don't Cheat,0,0,0,1,4,65,7igvdhlu,1,15,154,0,0,1,0,14,International Business and Social Siences,20,2,18-24,Germany,0,0,1,framed
7,3fmd8mik,2021-03-15 10:12:12.998267+00:00,1,924,Don't Control,,0,0,0,1,4,66,7igvdhlu,1,15,154,0,0,1,14,0,Geschichte,39,3,25-34,Germany,0,0,1,framed
8,qkypffhk,2021-03-15 10:12:13.165277+00:00,2,924,,Don't Cheat,0,0,0,1,4,66,7igvdhlu,1,15,154,0,0,1,0,14,International Business and Social Siences,20,2,18-24,Germany,0,0,1,framed
7,3fmd8mik,2021-03-15 10:12:12.998267+00:00,1,938,Don't Control,,0,0,0,1,4,67,7igvdhlu,1,15,154,0,0,1,14,0,Geschichte,39,3,25-34,Germany,0,0,1,framed
8,qkypffhk,2021-03-15 10:12:13.165277+00:00,2,938,,Don't Cheat,0,0,0,1,4,67,7igvdhlu,1,15,154,0,0,1,0,14,International Business and Social Siences,20,2,18-24,Germany,0,0,1,framed
7,3fmd8mik,2021-03-15 10:12:12.998267+00:00,1,952,Don't Control,,0,0,0,1,4,68,7igvdhlu,1,15,154,0,0,1,14,0,Geschichte,39,3,25-34,Germany,0,0,1,framed
8,qkypffhk,2021-03-15 10:12:13.165277+00:00,2,952,,Don't Cheat,0,0,0,1,4,68,7igvdhlu,1,15,154,0,0,1,0,14,International Business and Social Siences,20,2,18-24,Germany,0,0,1,framed
7,3fmd8mik,2021-03-15 10:12:12.998267+00:00,1,966,Don't Control,,0,0,0,1,4,69,7igvdhlu,1,15,154,0,0,1,14,0,Geschichte,39,3,25-34,Germany,0,0,1,framed
8,qkypffhk,2021-03-15 10:12:13.165277+00:00,2,966,,Don't Cheat,0,0,0,1,4,69,7igvdhlu,1,15,154,0,0,1,0,14,International Business and Social Siences,20,2,18-24,Germany,0,0,1,framed
7,3fmd8mik,2021-03-15 10:12:12.998267+00:00,1,980,Don't Control,,0,0,0,1,4,70,7igvdhlu,1,15,154,0,0,1,14,0,Geschichte,39,3,25-34,Germany,0,0,1,framed
8,qkypffhk,2021-03-15 10:12:13.165277+00:00,2,980,,Don't Cheat,0,0,0,1,4,70,7igvdhlu,1,15,154,0,0,1,0,14,International Business and Social Siences,20,2,18-24,Germany,0,0,1,framed
10,3u51j68w,2021-03-15 10:12:13.929373+00:00,2,14,,Don't Cheat,0,0,0,1,5,1,7igvdhlu,1,15,155,0,0,2,0,14,International Relations,22,2,18-24,Germany,0,0,1,framed
9,r3oyr52t,2021-03-15 10:12:13.724709+00:00,1,14,Don't Control,,0,0,0,1,5,1,7igvdhlu,1,15,155,0,0,1,14,0,"Communication and Information Engineering, B.Sc.",23,2,18-24,United States,0,0,1,framed
10,3u51j68w,2021-03-15 10:12:13.929373+00:00,2,30,,Cheat,0,1,1,0,5,2,7igvdhlu,1,15,155,0,1,2,0,16,International Relations,22,2,18-24,Germany,1,0.5,1,framed
9,r3oyr52t,2021-03-15 10:12:13.724709+00:00,1,17,Don't Control,,0,0,0,1,5,2,7igvdhlu,1,15,155,0,0,1,14,0,"Communication and Information Engineering, B.Sc.",23,2,18-24,United States,0,0,1,framed
10,3u51j68w,2021-03-15 10:12:13.929373+00:00,2,44,,Don't Cheat,0,0,0,1,5,3,7igvdhlu,1,15,155,0,1,2,0,14,International Relations,22,2,18-24,Germany,1,0.333333333,1,framed
9,r3oyr52t,2021-03-15 10:12:13.724709+00:00,1,31,Don't Control,,0,0,0,1,5,3,7igvdhlu,1,15,155,0,0,1,14,0,"Communication and Information Engineering, B.Sc.",23,2,18-24,United States,0,0,1,framed
10,3u51j68w,2021-03-15 10:12:13.929373+00:00,2,58,,Don't Cheat,0,0,0,1,5,4,7igvdhlu,1,15,155,0,1,2,0,14,International Relations,22,2,18-24,Germany,1,0.25,1,framed
9,r3oyr52t,2021-03-15 10:12:13.724709+00:00,1,45,Don't Control,,0,0,0,1,5,4,7igvdhlu,1,15,155,0,0,1,14,0,"Communication and Information Engineering, B.Sc.",23,2,18-24,United States,0,0,1,framed
10,3u51j68w,2021-03-15 10:12:13.929373+00:00,2,72,,Don't Cheat,0,0,0,1,5,5,7igvdhlu,1,15,155,0,1,2,0,14,International Relations,22,2,18-24,Germany,1,0.2,1,framed
9,r3oyr52t,2021-03-15 10:12:13.724709+00:00,1,59,Don't Control,,0,0,0,1,5,5,7igvdhlu,1,15,155,0,0,1,14,0,"Communication and Information Engineering, B.Sc.",23,2,18-24,United States,0,0,1,framed
10,3u51j68w,2021-03-15 10:12:13.929373+00:00,2,86,,Don't Cheat,0,0,0,1,5,6,7igvdhlu,1,15,155,0,1,2,0,14,International Relations,22,2,18-24,Germany,1,0.166666667,1,framed
9,r3oyr52t,2021-03-15 10:12:13.724709+00:00,1,73,Don't Control,,0,0,0,1,5,6,7igvdhlu,1,15,155,0,0,1,14,0,"Communication and Information Engineering, B.Sc.",23,2,18-24,United States,0,0,1,framed
10,3u51j68w,2021-03-15 10:12:13.929373+00:00,2,100,,Don't Cheat,0,0,0,1,5,7,7igvdhlu,1,15,155,0,1,2,0,14,International Relations,22,2,18-24,Germany,1,0.142857143,1,framed
9,r3oyr52t,2021-03-15 10:12:13.724709+00:00,1,87,Don't Control,,0,0,0,1,5,7,7igvdhlu,1,15,155,0,0,1,14,0,"Communication and Information Engineering, B.Sc.",23,2,18-24,United States,0,0,1,framed
